Time,placement_label,user_acc_x(m/s^2),user_acc_y(m/s^2),user_acc_z(m/s^2),rotation_rate_x(rad/s),rotation_rate_y(rad/s),rotation_rate_z(rad/s),gravity_x(m/s^2),gravity_y(m/s^2),gravity_z(m/s^2),attitude_roll(rad),attitude_pitch(rad),attitude_yaw(rad),target_delta_x,target_delta_y,target_delta_z,target_delta_roll,target_delta_pitch,target_delta_yaw
150000000000.0,6,-0.00477583855,-0.021182364,0.023732092999999996,0.001396,-0.001038,0.000197,-0.15564134215,-0.60325607475,-9.786840566999999,-0.015901,0.061554,-2.3751,0.0,0.0,0.0,0.0,0.0,0.0
150000000000.0,6,-0.0024908890999999996,-0.013837183149999998,0.03658861115,0.00034,-0.001027,-0.001939,-0.15568056875,-0.60356988755,-9.786840566999999,-0.015905,0.061586,-2.3751,9.999999999998899e-05,-0.00019999999999997797,0.0005300000000000304,-0.001638676725618883,0.009035652305693809,0.001579970171037455
150000000000.0,6,0.00196133,-0.00836507245,0.01652420525,-0.000715,0.001112,-0.000878,-0.15564134215,-0.6036581474,-9.786840566999999,-0.015901,0.061595,-2.3752,-9.999999999998899e-05,0.00019999999999997797,-0.0005300000000000304,0.0014190544645472578,-0.008877758864474838,-0.0013751009197785977
150000000000.0,6,0.011983726299999999,-0.01240541225,0.0057466969,0.000335,-0.001028,-0.000872,-0.15548443575,-0.6037954405,-9.786840566999999,-0.015886,0.061609,-2.3752,2.4999999999941735e-05,-5.0000000000105516e-05,2.0000000000020002e-05,-5.1104965338347186e-05,0.0002456766269065547,-0.00015956276354879562
150000000000.0,6,0.0068254284,-0.012542705349999999,0.01411176935,0.001402,-0.001036,-0.00087,-0.1554157892,-0.6041092533,-9.786742500499999,-0.015879,0.061641,-2.3752,2.500000000016378e-05,-4.999999999988347e-05,-2.0000000000020002e-05,8.455277471766665e-05,-0.0007844239123464547,-5.4244568070058174e-05
150000000000.0,6,-0.00393246665,0.00552114395,0.01860321505,0.000355,0.002168,0.00019,-0.1554354025,-0.6040700267,-9.786742500499999,-0.01588,0.061637,-2.3752,2.4999999999941735e-05,-4.999999999988347e-05,2.999999999997449e-05,0.0006955259368952582,0.0009460116180945999,-3.6921523749788854e-05
150000000000.0,6,-0.00397169325,-0.0009414384,0.023535959999999998,-0.00072,0.001111,0.00019,-0.1553961759,-0.6040406067499999,-9.786742500499999,-0.015877,0.061634,-2.3752,2.4999999999941735e-05,-5.0000000000105516e-05,0.000540000000000096,-0.0015357555432645859,0.009288737086265764,0.0014912669851998017
150000000000.0,6,0.00316754795,-0.005236751099999999,0.018436501999999997,0.000321,-0.002094,0.000197,-0.15550404904999998,-0.60423673975,-9.786742500499999,-0.015888,0.061654,-2.3752,-9.999999999998899e-05,0.00019999999999997797,-0.0005700000000000705,0.0010663311899590383,-0.009867359663317865,-0.0014764550516127711
150000000000.0,6,0.0040011132,0.0060703163499999995,0.00781590005,0.00033,-0.001028,0.000195,-0.15558250225,-0.6041680932,-9.786742500499999,-0.015896,0.061647,-2.3752,3.333333333332966e-05,-6.666666666665932e-05,2.0000000000020002e-05,0.0007927510264965562,0.0004072918530533265,3.857314079460522e-05
150000000000.0,6,0.00405014645,0.0059918631499999995,0.007825706699999999,0.000333,3.6e-05,0.001261,-0.15563153549999997,-0.60409944665,-9.786742500499999,-0.015901,0.06164,-2.3751,3.333333333332966e-05,-6.666666666665932e-05,2.0000000000020002e-05,-0.0001226622719695536,0.0005249457109512967,3.836250839148181e-06
150000000000.0,6,0.00697252815,-0.00573689025,0.01065982855,0.000335,-0.001027,-0.000872,-0.15556288894999998,-0.6041877065,-9.786742500499999,-0.015894,0.061649,-2.3751,3.333333333332966e-05,-6.666666666665932e-05,0.0005300000000000304,-0.001563149546140126,0.009046379627424939,0.0016277888705761648
150000000000.0,6,0.00250069575,-0.0007354987499999999,0.0167889848,0.0014,2.7e-05,0.001263,-0.15558250225,-0.6042465464,-9.786742500499999,-0.015896,0.061655,-2.3751,-4.999999999988347e-05,5.0000000000105516e-05,-0.00027999999999994696,-3.5790806826987986e-05,-6.705776608217917e-06,-8.223498194950829e-05
150000000000.0,6,0.010002783,0.0103165958,0.021143137399999998,-0.000723,4.7e-05,-0.000876,-0.1552981094,-0.6040798333499999,-9.786742500499999,-0.015867,0.061638,-2.3751,-5.0000000000105516e-05,4.999999999988347e-05,-0.000280000000000058,0.0017540502219427073,-0.009182411432193449,-0.0014132358039317394
150000000000.0,6,0.0054132708,0.00681562175,0.0205547384,0.000343,3.9e-05,-0.000874,-0.15505294314999998,-0.6040111868,-9.786840566999999,-0.015842,0.061631,-2.3751,5.0000000000105516e-05,-0.00029999999999996696,-1.0000000000065512e-05,-0.00021032483191218282,-0.0003547746366183713,-0.00012027565702271009
150000000000.0,6,0.00463854545,0.0090417313,0.013082071099999999,0.000335,-0.001027,-0.000872,-0.15502352319999999,-0.6038542804,-9.786840566999999,-0.015839,0.061615,-2.3751,4.999999999988347e-05,-0.00029999999999996696,0.0022600000000000398,0.012761186924205085,0.027818604355140275,0.0036516569584715206
150000000000.0,6,0.004020726499999999,0.00255953565,0.006501808949999999,0.000329,-0.001028,0.000195,-0.1550039099,-0.6037954405,-9.786840566999999,-0.015837,0.061609,-2.3751,-4.999999999988347e-05,0.0005999999999999339,-0.0022699999999999942,-0.012431127343742101,-0.027598846574334424,-0.003560437303163938
150000000000.0,6,0.00634490255,0.01171894675,0.0032263878499999995,-0.001796,5.6e-05,0.00019,-0.15478816359999997,-0.60353066095,-9.786840566999999,-0.015814,0.061582,-2.3752,-5.0000000000105516e-05,-2.4999999999941735e-05,2.0000000000020002e-05,0.000279756089668029,0.0002977723166497359,-5.612026197959752e-05
150000000000.0,6,-0.00289296175,0.00865927195,0.00638412915,0.000337,3.8e-05,0.000194,-0.1548273902,-0.6033247212999999,-9.786840566999999,-0.015819,0.061561,-2.3752,9.999999999998899e-05,-2.4999999999941735e-05,-2.0000000000020002e-05,-0.0009282592044421167,-0.00033059800478141277,5.4863380233166614e-06
150000000000.0,6,-0.007168661149999999,0.012356378999999999,0.025105024,0.000351,0.001105,-0.000876,-0.15473913035,-0.60311878165,-9.786840566999999,-0.015809,0.06154,-2.3752,-1.4285714285744433e-05,-2.500000000016378e-05,2.0000000000020002e-05,0.0002923181332633029,0.0001304439071785346,-2.473269893082941e-06
150000000000.0,6,-0.0084141057,0.02433029865,0.0363434449,-0.000725,4.8e-05,-0.000876,-0.1549842966,-0.6028343888,-9.786840566999999,-0.015835,0.061511,-2.3752,-1.4285714285744433e-05,-2.4999999999941735e-05,0.0005600000000000049,-0.0013623513734924014,0.009420191302204284,0.001469178697219048
150000000000.0,6,0.0015298374,0.0081395195,0.02213360905,-0.001797,5.6e-05,0.00019,-0.1549058434,-0.60264806245,-9.7869386335,-0.015827,0.061491,-2.3752,-1.4285714285744433e-05,9.999999999998899e-05,-0.0005700000000000705,0.001565622549218014,-0.009470334348837595,-0.001499639651445582
150000000000.0,6,0.0017357770499999998,0.00106892485,0.0023928226,0.000342,3.9e-05,-0.000874,-0.15481758354999997,-0.6026088358499999,-9.7869386335,-0.015817,0.061488,-2.3752,-1.4285714285522388e-05,2.4999999999941735e-05,-9.99999999995449e-06,-0.0002987789495534146,-3.8140503813677284e-05,3.5264693298210636e-05
150000000000.0,6,0.0020986231,0.0060016698,0.010169496049999999,0.000333,-0.001026,-0.000872,-0.15487642345,-0.6026088358499999,-9.7869386335,-0.015824,0.061488,-2.3752,-1.4285714285744433e-05,2.4999999999941735e-05,9.99999999995449e-06,9.656698151903204e-05,-4.022635746503411e-06,3.738184424054852e-05
150000000000.0,6,-0.004609125499999999,0.011003061299999999,0.01691647125,0.001417,0.001096,-0.000874,-0.15489603675,-0.6023734762499999,-9.7869386335,-0.015826,0.061463,-2.3752,-1.4285714285744433e-05,2.500000000016378e-05,4.000000000004e-06,-3.122962050317729e-05,-0.0003355189484905985,-0.00020541835154976734
150000000000.0,6,-0.00027458619999999996,-0.00326561445,0.017514676899999998,-0.000734,-0.001018,-0.000874,-0.15489603675,-0.6023146363499999,-9.7869386335,-0.015826,0.061458,-2.3752,-1.4285714285744433e-05,2.4999999999941735e-05,4.000000000004e-06,-0.00030678918228357194,-0.00023856138167221985,0.0001319377884531972
150000000000.0,6,-0.00463854545,-0.0076295737,0.0137685366,0.000342,3.9e-05,-0.000874,-0.15502352319999999,-0.6024421228,-9.7869386335,-0.015839,0.061471,-2.3752,1.4285714285744433e-05,-1.818181818191711e-05,4.000000000004e-06,-0.0001743327643459816,0.00010654652378638829,7.647562738778008e-05
150000000000.0,6,-0.010247949249999999,0.00085317855,0.023634026499999995,0.001403,2.9e-05,0.000196,-0.15524907615,-0.6025401893,-9.7869386335,-0.015862,0.061481,-2.3752,1.4285714285744433e-05,-1.8181818181695064e-05,4.000000000004e-06,-0.0001770035237280837,-0.00014790116134189013,-0.00020188160246774334
150000000000.0,6,-0.0055701772,-0.0032558077999999997,0.035588332849999994,0.001403,2.9e-05,0.000196,-0.1552981094,-0.6027755489,-9.786840566999999,-0.015866,0.061505,-2.3752,1.4285714285744433e-05,-1.818181818191711e-05,4.000000000004e-06,0.00023358620215253867,-4.283104758129319e-05,-9.95457567763286e-05
150000000000.0,6,0.00399130655,-0.012827098199999998,0.012385798949999999,-0.001797,5.6e-05,0.00019,-0.1552784961,-0.6029324553,-9.786840566999999,-0.015864,0.061521,-2.3752,1.4285714285522388e-05,-1.8181818181695064e-05,-2.999999999997449e-05,-8.041561128539071e-05,-0.00028515884898627775,6.073462151660186e-05
150000000000.0,6,0.0015102241,-0.02091758445,-0.0009414384,-0.00073,4.7e-05,0.000192,-0.15519023624999997,-0.60321684815,-9.786840566999999,-0.015856,0.06155,-2.3752,1.4285714285744433e-05,-1.818181818191711e-05,9.99999999995449e-06,3.6539493004875134e-05,-1.2205211867399868e-05,2.25526112124369e-05
150000000000.0,6,-0.0030302548499999997,-0.0141608026,0.004726805299999999,-0.000726,0.001111,0.001257,-0.15513139634999998,-0.60339336785,-9.786840566999999,-0.01585,0.061568,-2.3752,1.4285714285744433e-05,-1.8181818181695064e-05,1.4999999999987246e-05,7.601081416556965e-06,2.9427334212961398e-05,4.515898081503683e-05
150000000000.0,6,-0.005766310199999999,-0.0045502856,0.023124080699999997,0.00139,-0.001037,0.001265,-0.15524907615,-0.6035796941999999,-9.786840566999999,-0.015861,0.061587,-2.3752,1.4285714285744433e-05,-1.818181818191711e-05,1.4999999999987246e-05,-0.0004023058704766408,0.0006588224712260615,3.04124050502369e-05
150000000000.0,6,-0.006943108199999999,-0.0072961475999999996,0.035980598849999997,0.001421,0.00216,0.000192,-0.15526868945,-0.60382486045,-9.786840566999999,-0.015864,0.061612,-2.3752,-9.999999999998899e-05,-1.8181818181695064e-05,-4.999999999999449e-05,0.00020829739715873957,-0.0007016590503019504,-8.119387425938734e-05
150000000000.0,6,-0.009561483749999999,-0.011581653649999999,0.0272821003,-0.000726,0.001111,0.001257,-0.155337336,-0.6040308001,-9.786840566999999,-0.015871,0.061633,-2.3752,9.999999999998899e-05,-1.818181818191711e-05,2.0000000000020002e-05,-0.00024783761689439743,0.0001313535812947908,3.4749873471504045e-05
150000000000.0,6,-0.004059953099999999,-0.0082179727,0.00871811185,0.000338,3.8e-05,0.000194,-0.1554550158,-0.60409944665,-9.786742500499999,-0.015883,0.06164,-2.3752,-9.999999999998899e-05,-1.8181818181695064e-05,1.0000000000065512e-05,0.0004625593809666484,9.045463798784681e-05,8.515760903657354e-05
150000000000.0,6,-0.0120817928,-0.0004903325,0.0094732239,0.000338,3.8e-05,0.000194,-0.15566095545,-0.6040504134,-9.786742500499999,-0.015904,0.061635,-2.3752,9.999999999998899e-05,-1.818181818191711e-05,0.0005199999999999649,-0.0009750100655893587,0.009398907629197373,0.0014642447663690897
150000000000.0,6,-0.0089828914,0.00516810455,0.018897414549999998,0.001424,2.2e-05,0.000183,-0.1557688286,-0.6040111868,-9.786742500499999,-0.015915,0.061631,-2.3752,-4.999999999988347e-05,9.999999999998899e-05,5.999999999994898e-05,-0.000316437725283808,0.0006858678362651194,-0.00014692044120100112
150000000000.0,6,-0.0061193496,0.00903192465,0.0341467553,0.00142,-0.001042,-0.000883,-0.15593554164999998,-0.6041484799,-9.786742500499999,-0.015932,0.061645,-2.3752,-5.0000000000105516e-05,9.999999999998899e-05,-0.0005799999999999139,0.001389077895926051,-0.009535942063604974,-0.0013319437823166233
150000000000.0,6,-0.010924608099999998,-0.0016475171999999999,0.023065240799999998,0.000365,0.001096,0.000179,-0.15607283474999997,-0.6042269331,-9.786742500499999,-0.015946,0.061654,-2.3752,9.999999999998899e-05,-0.00019999999999997797,0.0005399999999999849,-0.0014720497123087567,0.008855010657703888,0.0015223992052516705
150000000000.0,6,0.00324600115,0.0032263878499999995,0.0099047165,0.000351,3e-05,0.001248,-0.1560238015,-0.6041680932,-9.786742500499999,-0.015941,0.061647,-2.3752,-9.999999999998899e-05,9.999999999998899e-05,5.999999999994898e-05,0.0011089619891201385,0.0015956186173742282,-0.0003171204865205224
150000000000.0,6,-0.0012552511999999998,0.0094928372,0.010198915999999999,0.002476,-0.001053,0.001254,-0.1561610946,-0.60415828655,-9.786742500499999,-0.015955,0.061646,-2.3752,5.555555555591951e-06,9.999999999998899e-05,-0.0006300000000000194,0.0011364755127221543,-0.010315857799188421,-0.0011548597156469803
150000000000.0,6,0.00387362675,0.0090417313,0.021584436649999997,-0.000716,3.9e-05,0.001246,-0.15605322145,-0.6040013801499999,-9.786742500499999,-0.015944,0.06163,-2.3751,5.555555555591951e-06,-9.999999999998899e-05,1.0000000000065512e-05,-0.00036728772062896015,-0.0001778737596409563,-2.6471758947287094e-05
150000000000.0,6,0.0002353596,0.0061389629,0.02099603765,-0.00285,5.6e-05,0.001243,-0.1561610946,-0.6037954405,-9.786840566999999,-0.015955,0.061609,-2.3751,5.5555555553699065e-06,-2.4999999999941735e-05,9.99999999995449e-06,-4.1027119583716964e-05,0.0002461410267253772,4.95959682302316e-05
150000000000.0,6,-0.0042756994,0.004314926,0.01652420525,-0.001786,-0.001017,0.000179,-0.15628858105,-0.6036189208,-9.786840566999999,-0.015968,0.061591,-2.3751,5.555555555591951e-06,-2.4999999999941735e-05,1.0000000000065512e-05,0.00021469148681137196,0.0002654102666828084,3.604987677548188e-05
150000000000.0,6,0.00031381279999999996,0.011836626549999998,0.010551955399999998,-0.00178,0.001112,0.00231,-0.15623954780000002,-0.60335414125,-9.786840566999999,-0.015963,0.061564,-2.3751,5.555555555591951e-06,-2.500000000016378e-05,-1.0000000000065512e-05,0.0006927076528822976,-3.17703839551875e-05,-4.542230758618898e-05
150000000000.0,6,0.0001765197,0.01419022255,0.018044235999999998,0.000342,-0.001036,0.00125,-0.15624935445,-0.60315800825,-9.786840566999999,-0.015964,0.061544,-2.3751,5.555555555591951e-06,-2.4999999999941735e-05,0.0005700000000000705,-0.0014837061806406149,0.009656664014621619,0.0014429814854689388
150000000000.0,6,0.0096497436,0.0125328987,0.020446865249999998,0.000342,-0.001035,0.00125,-0.15614148129999997,-0.60300110185,-9.786840566999999,-0.015953,0.061528,-2.3751,5.555555555591951e-06,-0.00014999999999987246,1.999999999990898e-05,-1.8464686218321036e-05,0.00047439039341790057,-7.758064804879589e-05
150000000000.0,6,0.0085513988,0.0033931009,0.015229727449999998,-0.00072,-0.001025,0.000181,-0.15594534829999998,-0.60284419545,-9.786840566999999,-0.015933,0.061511,-2.3751,5.555555555591951e-06,-0.0001500000000000945,0.0013300000000000534,0.009656043089822916,0.014913273447639597,0.001910172399213414
150000000000.0,6,-0.0011571847,-0.0010885381499999998,0.01222889255,-0.000706,4.1e-05,-0.000888,-0.1559649616,-0.6028540021,-9.786840566999999,-0.015935,0.061513,-2.3751,5.555555555591951e-06,0.00029999999999996696,-0.0013699999999999823,-0.010236351896637526,-0.01589158276942748,-0.0017260930393078258
150000000000.0,6,0.010395048999999998,0.0005099458,0.014327515649999999,0.000339,-0.002099,0.000185,-0.1558472818,-0.6029520686,-9.786840566999999,-0.015923,0.061522,-2.3751,5.5555555553699065e-06,-7.500000000004725e-05,2.0000000000020002e-05,0.00047041176692166203,0.0002494940174506688,-7.061113948887004e-05
150000000000.0,6,0.012385798949999999,0.00387362675,0.00879656505,-0.000694,0.002172,0.000175,-0.15558250225,-0.6028736154,-9.786840566999999,-0.015896,0.061515,-2.3751,5.555555555591951e-06,-7.49999999998252e-05,0.00044666666666659527,-0.00025513420124176345,4.8368634594897486e-05,5.641405735944127e-05
150000000000.0,6,0.0122190859,-0.00040207264999999996,0.02001537265,0.000361,3.3e-05,-0.000886,-0.15542559585,-0.60294226195,-9.786840566999999,-0.01588,0.061521,-2.3751,5.555555555591951e-06,-7.500000000004725e-05,0.0004466666666667063,-7.587471455208772e-05,5.916799896743541e-05,-6.000382866208631e-05
150000000000.0,6,0.0112776475,-0.007207887749999999,0.016720338249999998,-0.001776,-0.001014,-0.001956,-0.15522946284999997,-0.6030109084999999,-9.786840566999999,-0.015859,0.061529,-2.3751,5.555555555591951e-06,-7.500000000004725e-05,0.00044666666666659527,0.010040209593569438,0.01517610703831318,0.0017589063963798501
150000000000.0,6,0.0095712904,0.0030989013999999995,0.03003776895,0.000375,0.0011,-0.001956,-0.1548666168,-0.6031482016,-9.786840566999999,-0.015822,0.061542,-2.3751,5.555555555591951e-06,0.00029999999999996696,-0.0013499999999999623,-0.010019204933835804,-0.015334054690035348,-0.0018557815564747837
150000000000.0,6,0.009610516999999999,0.0030792880999999995,0.03003776895,-0.000714,-0.001023,-0.000887,-0.15491565004999996,-0.6031285882999999,-9.786840566999999,-0.015827,0.061541,-2.3751,5.5555555553699065e-06,6.666666666665932e-05,1.0000000000065512e-05,8.091305091958989e-05,-0.00021469540443463941,0.00012226434676565479
150000000000.0,6,0.0100812362,-0.0073157609,0.0156710267,0.000358,-0.001031,-0.001952,-0.15477835694999997,-0.60319723485,-9.786840566999999,-0.015814,0.061548,-2.3752,5.555555555591951e-06,6.666666666665932e-05,3.999999999992898e-05,-0.00020062509792234673,0.0004908438833537421,-6.965316763531126e-05
150000000000.0,6,0.00867888525,-0.00979684335,0.007727640199999999,-0.000709,-0.001022,-0.001954,-0.15471951704999998,-0.60341298115,-9.786840566999999,-0.015808,0.06157,-2.3752,5.555555555591951e-06,6.666666666665932e-05,-0.0005800000000000249,0.0011203425949859527,-0.009500343117198051,-0.0013538367606561116
150000000000.0,6,0.00196133,-0.00540346415,0.021329463749999996,0.00037,0.0011,-0.000888,-0.15473913035,-0.6036189208,-9.786840566999999,-0.01581,0.061591,-2.3752,5.555555555591951e-06,-0.00019999999999997797,0.0005300000000000304,-0.0011672519551439858,0.00864301531968592,0.0014848073827037483
150000000000.0,6,0.0016377105499999999,-0.0054426907500000005,0.02939053005,0.001428,2.5e-05,-0.000885,-0.1548666168,-0.6038837003499999,-9.786840566999999,-0.015823,0.061618,-2.3752,-4.999999999988347e-05,3.333333333332966e-05,1.0000000000065512e-05,-5.9265537566639825e-05,0.0002282702050988572,-0.00010071816555127372
150000000000.0,6,-0.00318716125,-0.0038049802,0.03297976395,0.00037,0.0011,-0.000888,-0.15497448995,-0.6040209934499999,-9.786840566999999,-0.015834,0.061632,-2.3752,-5.0000000000105516e-05,3.333333333332966e-05,9.99999999995449e-06,0.0002764837446339319,0.0006323712251357083,-0.00020066916238090093
150000000000.0,6,-0.0014709974999999999,0.00234378935,0.014415775499999998,-0.000709,-0.001021,-0.001954,-0.15505294314999998,-0.6040406067499999,-9.786840566999999,-0.015841,0.061634,-2.3752,9.999999999998899e-05,3.333333333332966e-05,-9.99999999995449e-06,-0.00016916699003281105,-0.00015517982191881607,9.606578538547822e-05
150000000000.0,6,0.0015886773,0.009532063799999999,0.0032263878499999995,-0.002851,-0.002069,-0.001956,-0.15511178305,-0.6035993075,-9.786840566999999,-0.015848,0.061589,-2.3752,-3.333333333332966e-05,3.333333333332966e-05,1.999999999990898e-05,-0.0003687898845329482,0.0001918878775264421,4.792268896160884e-05
150000000000.0,6,-1.9613299999999997e-05,0.0024026292499999997,0.00516810455,0.000366,3.5e-05,-0.001954,-0.15515100965,-0.60349143435,-9.786840566999999,-0.015852,0.061578,-2.3752,-3.333333333332966e-05,3.333333333332966e-05,-9.99999999995449e-06,0.00019892409310635906,-0.000502803868478674,6.988305998910371e-05
150000000000.0,6,-0.0076295737,0.01197391965,0.01595541955,0.001419,-0.00104,-0.000883,-0.15532752935,-0.6033443346,-9.786840566999999,-0.01587,0.061563,-2.3753,-3.333333333332966e-05,3.333333333332966e-05,-0.0005800000000000249,0.001177417715870141,-0.009909678410318756,-0.0016758869621745637
150000000000.0,6,-0.01307226445,0.011209000949999999,0.029567049749999998,0.001419,-0.00104,-0.000883,-0.1557099887,-0.6033247212999999,-9.786840566999999,-0.015909,0.061561,-2.3753,1.1111111111183902e-05,-1.3333333333420683e-05,2.0000000000020002e-05,-0.00044193221667282456,-0.00019585683133827025,-9.9169741088867e-05
150000000000.0,6,-0.01034601575,0.0013140911,0.0228298812,-0.000715,-0.001023,-0.000886,-0.15604341479999997,-0.6033051079999999,-9.786840566999999,-0.015943,0.061559,-2.3753,1.1111111110961858e-05,-1.3333333333198638e-05,-4.0000000000040004e-05,0.00029232728825889787,-0.00014413496620035993,0.00012160104961531082
150000000000.0,6,-0.0091986377,-0.00043149259999999994,0.008168939449999999,-0.001764,0.001117,-0.000892,-0.15615128795,-0.6032070415,-9.786840566999999,-0.015953,0.061548,-2.3753,1.1111111111183902e-05,-1.3333333333420683e-05,1.0000000000065512e-05,-0.00042964890763673436,-9.549621250082296e-05,-1.3134693171809597e-05
150000000000.0,6,-0.00718827445,0.0029027683999999997,0.0083160392,0.001422,2.4e-05,0.000183,-0.15621012785,-0.60325607475,-9.786840566999999,-0.01596,0.061553,-2.3753,1.1111111111183902e-05,-1.3333333333198638e-05,-1.0000000000065512e-05,0.0004916278848957831,0.00025292319665437546,-2.9997051350434678e-05
150000000000.0,6,-0.015406247149999998,0.00771783355,0.01744603035,-0.000695,0.002172,0.000175,-0.15637684089999998,-0.60311878165,-9.786840566999999,-0.015977,0.06154,-2.3753,1.1111111110961858e-05,-1.3333333333420683e-05,1.0000000000065512e-05,-0.0004943510060759354,-0.0001659821192827593,5.735250265877234e-05
150000000000.0,6,-0.012542705349999999,-0.0032361944999999997,0.028655031299999998,-0.000712,4.1e-05,0.000179,-0.15654355395,-0.60323646145,-9.786840566999999,-0.015994,0.061552,-2.3753,1.1111111111183902e-05,-1.3333333333420683e-05,-2.0000000000020002e-05,0.0002323110450282509,6.951086584194854e-05,-8.611486650726002e-05
150000000000.0,6,-0.017043957699999997,0.0056094038,0.022967174299999997,0.001427,2.4e-05,-0.000884,-0.15683775345,-0.60325607475,-9.786840566999999,-0.016024,0.061554,-2.3753,1.1111111111183902e-05,-1.3333333333198638e-05,2.0000000000020002e-05,0.00021360698994525584,7.363594511677896e-05,0.000125494283184438
150000000000.0,6,-0.01003220295,0.012434832199999999,0.024173392250000002,-0.00072,-0.001025,0.000181,-0.15695543324999997,-0.6030501350999999,-9.786840566999999,-0.016036,0.061533,-2.3753,1.1111111110961858e-05,-1.3333333333420683e-05,2.0000000000020002e-05,-0.0002215721080524244,0.00017779050870747604,1.6119839372517875e-05
150000000000.0,6,-0.0026085689,0.009483030549999999,0.01160126695,0.002475,-0.001052,0.001254,-0.1570633064,-0.60309916835,-9.786840566999999,-0.016047,0.061538,-2.3753,1.1111111111183902e-05,-1.3333333333198638e-05,-1.0000000000065512e-05,-0.0008439027654587455,-0.0006316367704852777,-5.5772837791789875e-05
150000000000.0,6,-0.00167693715,0.010012589649999999,0.015357213899999998,0.000341,-0.001035,0.00125,-0.15709272635,-0.6028736154,-9.786840566999999,-0.01605,0.061515,-2.3753,-9.999999999998899e-05,-1.3333333333420683e-05,-3.3333333333551707e-06,0.0007456202364571826,0.000775998564999103,9.829447354251647e-05
150000000000.0,6,0.0060016698,0.01213082605,-0.0022947561,-0.000712,4.1e-05,0.000179,-0.1569848532,-0.6027559356,-9.786840566999999,-0.016039,0.061502,-2.3752,1.999999999990898e-05,-1.3333333333420683e-05,-3.3333333332441484e-06,-0.00034380772748179855,-0.0007109557226443464,-8.998052855824223e-05
150000000000.0,6,0.0038638200999999996,0.01213082605,0.014915914649999999,0.002466,-0.002117,0.001256,-0.15709272635,-0.6027559356,-9.786840566999999,-0.01605,0.061503,-2.3752,2.0000000000131024e-05,-1.3333333333198638e-05,-3.3333333333551707e-06,0.00016770700952683376,0.0002552507121285075,-1.3352740699044963e-05
150000000000.0,6,0.0063939358,0.00587418335,0.036010018799999995,0.000368,0.001099,-0.000888,-0.15692601329999997,-0.60278535555,-9.786840566999999,-0.016033,0.061505,-2.3752,1.999999999990898e-05,-1.3333333333420683e-05,2.999999999997449e-05,0.0003106787552061771,0.0004992070541114391,0.00013759185358048348
150000000000.0,6,0.013454723799999999,0.0012454445499999998,0.036010018799999995,0.001432,2.6e-05,-0.001952,-0.1568083335,-0.60294226195,-9.786840566999999,-0.016021,0.061522,-2.3753,2.0000000000131024e-05,-1.3333333333198638e-05,-9.99999999995449e-06,-7.912148217461418e-05,3.4358799156919417e-06,7.62979487875029e-05
150000000000.0,6,0.0137685366,-0.0043247326499999995,0.014915914649999999,-0.001771,0.001116,0.000176,-0.15652394065,-0.60290303535,-9.786840566999999,-0.015992,0.061518,-2.3753,1.999999999990898e-05,-1.3333333333420683e-05,0.0005600000000000049,-0.0017193113456675652,0.009153968624263653,0.0012696908465646695
150000000000.0,6,0.005933023249999999,-0.013297817399999998,0.0020397832,0.00036,3.4e-05,-0.000886,-0.15646510075,-0.60305994175,-9.786840566999999,-0.015986,0.061534,-2.3753,-9.999999999998899e-05,0.00019999999999997797,-0.0005900000000000905,0.0017808787735579881,-0.009617704637811197,-0.0013957913131925556
150000000000.0,6,0.0126898051,-0.0100812362,0.014749201599999998,0.000368,0.0011,-0.000888,-0.1562003212,-0.6032854947,-9.786840566999999,-0.015959,0.061557,-2.3753,3.333333333332966e-05,-2.4999999999941735e-05,2.0000000000020002e-05,-0.00042608098573034686,0.00011886476586697725,-5.768475558907971e-06
150000000000.0,6,0.0146315218,-0.0153376006,0.027752819499999998,0.000366,3.6e-05,-0.001954,-0.15588650839999998,-0.6035600808999999,-9.786840566999999,-0.015927,0.061585,-2.3753,3.333333333332966e-05,-2.500000000016378e-05,1.0000000000065512e-05,-0.0002194313819846097,-0.00016941618556276516,-2.7942549447802778e-05
150000000000.0,6,0.011209000949999999,-0.0187503148,0.02593858925,0.000352,-0.001031,-0.000884,-0.15590612169999998,-0.603893507,-9.786840566999999,-0.015929,0.061619,-2.3753,3.333333333332966e-05,-2.4999999999941735e-05,9.99999999995449e-06,-0.0001878120599339561,0.0002473280229386976,0.0001271465562824592
150000000000.0,6,0.0150630144,-0.0280077924,0.0162005858,-0.001759,0.001119,-0.001959,-0.15542559585,-0.6042073198,-9.786742500499999,-0.01588,0.061652,-2.3753,4.0000000000040004e-05,-2.4999999999941735e-05,-9.99999999995449e-06,-0.00019229682739257264,-0.0002819347798654892,-7.240309077822388e-05
150000000000.0,6,0.013876409749999999,-0.033146477,0.0083944924,-0.001775,-0.001011,-0.001956,-0.1552784961,-0.60460939245,-9.786742500499999,-0.015865,0.061692,-2.3753,4.0000000000040004e-05,-2.4999999999941735e-05,-5.000000000032756e-06,0.00016655489451258138,-2.1582398065156383e-05,-2.4514172272331602e-05
150000000000.0,6,0.008492558899999999,-0.02662505475,0.00761976705,-0.000722,-0.002087,-0.000885,-0.15528830274999997,-0.60500165845,-9.786742500499999,-0.015866,0.061732,-2.3753,3.999999999981796e-05,-2.4999999999941735e-05,-5.000000000032756e-06,6.141101647222369e-05,-0.0001330726556902917,-0.00014259717553048723
150000000000.0,6,0.0063743225,-0.01419022255,0.02676234785,-0.000691,0.001111,-0.001958,-0.15512158969999998,-0.6053056646,-9.786742500499999,-0.015849,0.061763,-2.3754,4.0000000000040004e-05,-2.500000000016378e-05,1.0000000000065512e-05,-0.0003678499033124491,0.000249171898183409,5.5931157585099867e-05
150000000000.0,6,-0.0072176943999999995,-0.0065312289,0.026742734549999998,0.000368,3.7e-05,-0.001954,-0.15528830274999997,-0.6054821842999999,-9.786742500499999,-0.015866,0.061782,-2.3754,4.0000000000040004e-05,-2.4999999999941735e-05,9.999999999998899e-05,0.007761612389342615,-0.004057414823047889,-0.0038432063557531718
150000000000.0,6,-0.011571847,-0.0177108099,0.0186522483,-0.00069,0.001111,-0.001957,-0.15542559585,-0.6056881239499999,-9.786644434,-0.01588,0.061802,-2.3754,-0.00019999999999997797,0.00019999999999997797,-0.00012000000000000899,-0.006985713182395999,0.0038036096126101704,0.0037445514784770068
150000000000.0,6,-0.0112384209,-0.00293218835,0.015494507,0.000368,3.7e-05,-0.001954,-0.15560211554999998,-0.6057861904499999,-9.786644434,-0.015898,0.061813,-2.3754,3.181818181818841e-05,4.761904761840796e-06,2.0000000000020002e-05,-0.00035807129240369995,-0.00011643382394899149,-6.972569385779726e-05
150000000000.0,6,-0.009590903699999999,0.011640493549999999,0.021937476049999998,0.000371,0.001101,-0.000888,-0.15575902195,-0.6057077372499999,-9.786644434,-0.015914,0.061804,-2.3754,3.181818181818841e-05,4.761904762062841e-06,-5.000000000032756e-06,0.0004661293801155736,0.0002953115803958628,4.345920097083289e-05
150000000000.0,6,-0.0040795664,0.01456287525,0.031067467199999997,0.001417,-0.002103,-0.001948,-0.15603360815,-0.6056390907,-9.786644434,-0.015943,0.061797,-2.3754,3.181818181818841e-05,4.761904761840796e-06,-5.000000000032756e-06,-0.00024137490039738418,-0.00026952502951393953,-9.013122310176647e-05
150000000000.0,6,-0.011463973849999998,0.0244185585,0.018828768,-0.003897,0.001136,-0.000896,-0.1562787744,-0.6050114650999999,-9.786742500499999,-0.015967,0.061733,-2.3754,3.181818181818841e-05,4.761904761840796e-06,-5.000000000032756e-06,-9.344190191995505e-05,0.00022933617827347597,-2.976392136117001e-06
150000000000.0,6,-0.019279873899999998,0.02591897595,0.00448163905,0.001437,0.001092,-0.000886,-0.15654355395,-0.6045603592,-9.786742500499999,-0.015994,0.061687,-2.3755,3.181818181818841e-05,4.761904761840796e-06,-4.999999999921734e-06,0.0002816294268017869,-0.00037880078644336734,-4.4347400476422993e-05
150000000000.0,6,-0.022486648449999997,0.04437509125,0.01919161405,0.001414,-0.001041,0.000185,-0.15692601329999997,-0.6038640870499999,-9.786742500499999,-0.016033,0.061616,-2.3755,3.181818181818841e-05,4.761904762062841e-06,3.3333333333551707e-06,0.00016103969915697708,0.00034922169911277834,-3.3547740762376876e-06
150000000000.0,6,-0.008757338449999999,0.0414821295,0.026556408199999996,0.000346,-0.001032,0.000183,-0.15719079285,-0.6032266547999999,-9.786840566999999,-0.01606,0.061551,-2.3755,3.181818181818841e-05,4.761904761840796e-06,3.3333333332441484e-06,-0.00021736142324288443,-0.0004486293075649517,-7.355129908161173e-05
150000000000.0,6,-0.00824739265,0.034313468349999994,0.020750871399999996,-0.000744,-0.003156,0.001252,-0.1575536389,-0.6026382558,-9.786840566999999,-0.016097,0.061491,-2.3754,3.181818181818841e-05,4.761904761840796e-06,3.3333333333551707e-06,-0.0001690650054467016,0.00027073371527741585,0.0003450609777439842
150000000000.0,6,-0.01517088755,0.02117255735,0.0038638200999999996,-0.000722,-0.001024,0.000181,-0.15780861179999997,-0.6022165698499999,-9.786840566999999,-0.016123,0.061448,-2.3754,3.181818181818841e-05,4.761904762062841e-06,-9.99999999995449e-06,3.8988194889573446e-05,-9.003213534164445e-05,-0.00023345171247925872
150000000000.0,6,-0.02021150565,0.02680157445,0.00522694445,0.001411,-0.001042,0.000185,-0.15815184454999998,-0.6018537238,-9.7869386335,-0.016158,0.061411,-2.3754,3.181818181818841e-05,4.761904761840796e-06,-1.0000000000065512e-05,1.2899585525284751e-05,0.00027814354300081945,-2.2173194762185877e-05
150000000000.0,6,-0.01840708205,0.015278760699999998,0.024987344199999997,0.001437,0.002155,0.000179,-0.15831855759999997,-0.60170662405,-9.7869386335,-0.016175,0.061396,-2.3754,3.181818181818841e-05,4.761904761840796e-06,2.0000000000020002e-05,-6.9210758755274e-05,-0.00014217661328208564,1.0395066462033642e-05
150000000000.0,6,-0.013817569850000001,-0.0014415775499999998,0.027968565799999998,-0.001778,0.001114,0.001243,-0.15856372384999998,-0.60174585065,-9.7869386335,-0.0162,0.061399,-2.3754,3.181818181818841e-05,4.761904761840796e-06,5.000000000032756e-06,9.634935531269151e-05,-0.00012496106438941723,1.2662888099868042e-05
150000000000.0,6,-0.007207887749999999,-0.0144550021,0.027801852749999998,0.001406,-0.001043,0.001252,-0.15874024355,-0.6020498568,-9.786840566999999,-0.016219,0.061431,-2.3754,3.181818181818841e-05,4.761904762062841e-06,5.000000000032756e-06,-0.00047962360033695917,0.00017078245706070305,0.00014382341003084387
150000000000.0,6,0.010571568699999999,-0.01726951065,0.005187717849999999,0.000353,3.2e-05,0.000181,-0.15856372384999998,-0.6023832829,-9.786840566999999,-0.016201,0.061465,-2.3754,3.181818181818841e-05,4.761904761840796e-06,-1.0000000000065512e-05,0.0004671682426391141,0.0001954987424015453,-9.679402006541188e-05
150000000000.0,6,0.01501398115,-0.010954028049999998,0.013405690549999998,0.000337,-0.002098,0.000185,-0.15836759085,-0.6025598026,-9.786840566999999,-0.01618,0.061483,-2.3754,3.181818181818841e-05,4.761904761840796e-06,-9.99999999995449e-06,-0.00042935438030582834,-0.0003779312544309743,2.772493355644029e-05
150000000000.0,6,0.00932612415,-0.024291072049999998,0.02160404995,0.002488,1.5e-05,0.000185,-0.15821068445,-0.60313839495,-9.786840566999999,-0.016165,0.061542,-2.3754,3.181818181818841e-05,4.761904762062841e-06,9.99999999995449e-06,-3.539347884042032e-05,0.00011963340056286853,-1.7196682522799267e-05
150000000000.0,6,0.01801481605,-0.01668111165,0.01860321505,-0.000723,4e-05,0.002314,-0.15791648495,-0.6034227878,-9.786742500499999,-0.016135,0.06157,-2.3754,3.181818181818841e-05,4.761904761840796e-06,1.4999999999987246e-05,0.0003897671540117609,0.0004244644073556625,0.00013278214916792597
150000000000.0,6,0.0160436794,-0.0121014061,0.010071429549999998,-0.001785,5e-05,0.001245,-0.15760267214999998,-0.60351104765,-9.786742500499999,-0.016102,0.06158,-2.3754,3.181818181818841e-05,4.761904761840796e-06,1.4999999999987246e-05,-0.0005043009380280711,-0.00018741302765334922,-2.983726802785469e-05
150000000000.0,6,0.007727640199999999,-0.012778064949999998,0.01664188505,0.001422,2.5e-05,0.000183,-0.15736731254999997,-0.60372679395,-9.786742500499999,-0.016078,0.061602,-2.3754,3.181818181818841e-05,4.761904761840796e-06,-9.99999999995449e-06,0.0002445238315444201,0.000154781279487759,-8.747468061210545e-05
150000000000.0,6,0.00652142225,0.00122583125,0.030537908099999997,0.001413,-0.00104,0.000185,-0.15721040614999998,-0.6041092533,-9.786742500499999,-0.016062,0.061641,-2.3754,3.181818181818841e-05,4.761904762062841e-06,-9.99999999995449e-06,-9.686083370965409e-05,-0.00019332656336978893,3.490920358015931e-05
150000000000.0,6,0.006452775699999999,0.0012650578499999998,0.030537908099999997,0.000369,0.001101,-0.000888,-0.15714175959999999,-0.6041484799,-9.786742500499999,-0.016055,0.061645,-2.3754,3.181818181818841e-05,4.761904761840796e-06,9.99999999995449e-06,0.0001521270189105972,9.098370128191036e-05,0.00013850817010918615
150000000000.0,6,-0.00389324005,-0.0046875787,0.021103910799999997,-0.000724,-0.002087,-0.000884,-0.1574163458,-0.6041877065,-9.786742500499999,-0.016083,0.061649,-2.3754,3.181818181818841e-05,-0.001000000000000112,0.0012799999999999478,-0.01956520217921051,-0.0027191649248219374,-0.0024468498111993586
150000000000.0,6,0.0029910282499999996,-0.01772061655,0.00403053315,-0.000706,4.4e-05,-0.000888,-0.1574163458,-0.6044720993499999,-9.786742500499999,-0.016083,0.061678,-2.3754,-0.000700000000000145,0.0009000000000001229,-0.0012999999999999678,0.01943857096047967,0.0027541439472937856,0.0024152646938893907
150000000000.0,6,0.01466094175,0.00102969825,0.0243793319,0.001422,2.6e-05,0.000183,-0.15711233965,-0.60451132595,-9.786742500499999,-0.016052,0.061683,-2.3754,9.999999999998899e-05,-9.999999999998899e-05,6.499999999998174e-05,8.53844547370683e-05,-2.0766594516219428e-05,-2.4610320990513246e-05
150000000000.0,6,0.0195152335,-0.00279489525,0.0318519992,0.001425,0.00109,0.001249,-0.15673968694999998,-0.6047368788999999,-9.786742500499999,-0.016014,0.061705,-2.3754,9.999999999998899e-05,-9.999999999998899e-05,6.500000000009276e-05,0.007223864321902827,-0.003968469125261498,-0.003749208563870267
150000000000.0,6,0.00944380395,-0.00954187045,0.03379371589999999,-0.00072,-0.001022,0.000181,-0.1566906537,-0.60486436535,-9.786742500499999,-0.016009,0.061718,-2.3754,-0.00019999999999997797,0.00029999999999996696,-0.0001300000000000745,-0.007218542036963725,0.003606092398363181,0.0036979730074766445
150000000000.0,6,0.006933301549999999,-0.0108069283,0.012836904849999999,0.000356,3.5e-05,0.000181,-0.1565729739,-0.60509972495,-9.786742500499999,-0.015997,0.061742,-2.3754,0.0004999999999999449,-0.0004999999999999449,0.00017000000000000348,0.004740790384669451,-0.006205870752590936,-0.0038390713049990463
150000000000.0,6,-0.00363826715,0.00053936575,0.0060997363,-0.000706,4.5e-05,-0.000888,-0.15662200715,-0.60508011165,-9.786742500499999,-0.016003,0.06174,-2.3754,-0.0004999999999999449,0.00039999999999995595,-0.00014999999999998348,-0.004500303959549742,0.006837766985719584,0.003840685199583624
150000000000.0,6,-0.0006374322499999999,-0.0010395049,0.01972117315,-0.001769,0.001118,0.000176,-0.15648471404999997,-0.6049918517999999,-9.786742500499999,-0.015988,0.061731,-2.3754,4.761904761840796e-06,-3.333333333332966e-05,9.99999999995449e-06,-0.0005227936536043448,-0.0003536124317831124,9.008552986926321e-05
150000000000.0,6,-0.0050798447,-0.00159848395,0.027350746849999996,0.000361,3.6e-05,-0.000886,-0.1566710404,-0.6050310783999999,-9.786742500499999,-0.016008,0.061735,-2.3754,4.761904762062841e-06,-3.333333333332966e-05,-1.999999999990898e-05,0.0004300611874723942,-0.00011988262624718082,-0.0001737725280795549
150000000000.0,6,-0.01250347875,0.00608992965,0.02211399575,0.000347,-0.001031,0.000183,-0.15688678669999997,-0.6049330118999999,-9.786742500499999,-0.016029,0.061726,-2.3754,4.761904761840796e-06,-3.333333333332966e-05,0.0005799999999999139,-0.0015034598093368323,0.009596453643134772,0.0015665263337481528
150000000000.0,6,-0.013474337099999999,0.018485535249999997,0.010904994799999998,0.000366,3.7e-05,-0.001953,-0.15711233965,-0.6046191991,-9.786742500499999,-0.016052,0.061693,-2.3754,4.761904761840796e-06,9.999999999998899e-05,-0.0005699999999999594,0.0016542765859215505,-0.009433552844568815,-0.0015808941369025095
150000000000.0,6,-0.013935249649999999,0.01466094175,0.021829602899999998,0.001422,2.6e-05,0.000183,-0.15740653915,-0.6045309392499999,-9.786742500499999,-0.016082,0.061684,-2.3754,4.761904761840796e-06,3.333333333332966e-05,-2.0000000000020002e-05,-0.00042186191886667973,-0.00013028095622846791,0.0001322788855392873
150000000000.0,6,-0.00481506515,0.005011198149999999,0.03305821715,0.000346,-0.001031,0.000183,-0.15754383225,-0.6044622927,-9.786742500499999,-0.016096,0.061677,-2.3754,4.761904762062841e-06,3.333333333332966e-05,-9.99999999995449e-06,-2.79944795235354e-06,0.00016126034544505785,-0.00011754416297540815
150000000000.0,6,0.00134351105,0.00224572285,0.025732649599999997,-0.000707,4.4e-05,-0.000888,-0.15756344555000001,-0.6043838395,-9.786742500499999,-0.016099,0.061669,-2.3754,4.761904761840796e-06,3.333333333332966e-05,9.99999999995449e-06,0.0002448074486386814,-0.0002724546323757959,8.270925745137991e-06
150000000000.0,6,0.00946341725,0.0044129925,0.014366742249999998,0.000355,3.5e-05,0.000181,-0.15729866599999998,-0.6043053863,-9.786742500499999,-0.016071,0.061661,-2.3754,4.761904761840796e-06,-9.999999999998899e-05,1.0000000000065512e-05,-7.684726261135422e-05,-0.00013324451530660752,5.7930014067675284e-05
150000000000.0,6,0.016033872749999997,-0.0082179727,0.01360182355,0.001399,-0.002106,0.001254,-0.15714175959999999,-0.60455055255,-9.786742500499999,-0.016055,0.061686,-2.3754,4.761904762062841e-06,3.3333333333551707e-06,9.99999999995449e-06,0.00011878902306748651,0.0004164607334822268,7.88447207115961e-06
150000000000.0,6,0.00954187045,-0.0016475171999999999,0.021829602899999998,0.001419,-0.001038,-0.000882,-0.1570829197,-0.60468784565,-9.786742500499999,-0.016049,0.0617,-2.3754,4.761904761840796e-06,3.3333333333551707e-06,-9.99999999995449e-06,-0.0001445199093790539,-8.998786247560453e-05,3.200156185172165e-05
150000000000.0,6,0.0093359308,0.00548191735,0.0169066646,-0.001779,5.3e-05,0.000178,-0.15687698005,-0.604481906,-9.786742500499999,-0.016028,0.06168,-2.3754,4.761904761840796e-06,3.3333333333551707e-06,5.000000000032756e-06,0.00035063867957722816,0.00018277792107435076,-2.1371245086804214e-06
150000000000.0,6,-0.00018632635,-0.00269682875,0.0131605243,0.000355,3.6e-05,0.000181,-0.15692601329999997,-0.6045309392499999,-9.786742500499999,-0.016033,0.061684,-2.3754,4.761904761840796e-06,3.3333333333551707e-06,4.999999999921734e-06,-0.0003473739470851306,-0.00016651213549545574,1.514727174398156e-06
150000000000.0,6,-0.0047464186,0.000196133,0.024673531399999997,-0.001779,5.3e-05,0.000178,-0.15701427315,-0.6045897791499999,-9.786742500499999,-0.016042,0.06169,-2.3754,4.761904762062841e-06,3.333333333133126e-06,-9.99999999995449e-06,0.00033886627468346364,0.00039307644437447387,-7.11985136467308e-05
150000000000.0,6,0.0025987622499999996,0.0008629851999999999,0.036647451049999995,0.001413,-0.001039,0.000185,-0.15702407979999997,-0.6046486190499999,-9.786742500499999,-0.016043,0.061696,-2.3754,4.761904761840796e-06,3.3333333333551707e-06,-1.0000000000065512e-05,-0.0002560306970344692,-0.0004210915562874451,5.3478394327115264e-05
150000000000.0,6,-0.0014709974999999999,-0.0051190713,0.02870406455,0.000364,0.001101,0.00018,-0.15699465984999997,-0.6047957187999999,-9.786742500499999,-0.01604,0.061712,-2.3754,4.761904761840796e-06,3.3333333333551707e-06,-3.3333333333551707e-06,-3.951811589752302e-05,0.00011887114179409686,4.8264065115530275e-06
150000000000.0,6,0.0008825985,0.001765197,0.0082179727,-0.000703,0.00111,0.000178,-0.15666123375,-0.6046584257,-9.786742500499999,-0.016006,0.061697,-2.3754,4.761904762062841e-06,3.3333333333551707e-06,-3.3333333332441484e-06,0.00014933742050049492,-0.00015713663607908046,1.811392234640774e-05
150000000000.0,6,-0.00030400615,0.0049229383,0.01660265845,-0.000712,4.5e-05,0.00018,-0.15666123375,-0.6045211326,-9.786742500499999,-0.016007,0.061683,-2.3754,4.761904761840796e-06,3.3333333333551707e-06,-3.3333333333551707e-06,-0.00014263014659483125,8.590989902779178e-05,-9.084885966829243e-05
150000000000.0,6,0.0035696206,0.00410898635,0.0131605243,0.00143,0.001093,0.000181,-0.1564945207,-0.60460939245,-9.786742500499999,-0.015989,0.061692,-2.3754,4.761904761840796e-06,3.3333333333551707e-06,4.999999999921734e-06,0.00013272976742175618,-9.235663936379979e-05,8.483515015639959e-05
150000000000.0,6,0.00685484835,0.0031773546,0.0224376152,0.001408,-0.001039,0.001253,-0.1564945207,-0.6047172655999999,-9.786742500499999,-0.015989,0.061703,-2.3754,4.761904761840796e-06,3.3333333333551707e-06,5.000000000032756e-06,-0.0002803417010041956,-8.50347198591006e-05,-2.7201365135946787e-05
150000000000.0,6,0.0037559469499999997,0.0040011132,0.0263406619,-0.002817,0.002194,0.000179,-0.15638664754999998,-0.6045015193,-9.786742500499999,-0.015978,0.061681,-2.3754,4.761904762062841e-06,3.3333333333551707e-06,2.0000000000020002e-05,2.7943230256233242e-05,3.544992476034459e-05,-6.229818566527712e-05
150000000000.0,6,0.00226533615,0.007658993649999999,0.014837461449999999,-0.001767,5.4e-05,0.000185,-0.15623954780000002,-0.6042661597,-9.786742500499999,-0.015963,0.061657,-2.3754,4.761904761840796e-06,3.3333333333551707e-06,-2.0000000000020002e-05,-7.237647275271097e-05,-3.1398328746767845e-05,3.959605012149314e-05
150000000000.0,6,-0.0037069137,0.009973363049999998,0.013954862949999999,0.000356,3.4e-05,0.002323,-0.1562591611,-0.6040406067499999,-9.786742500499999,-0.015965,0.061634,-2.3754,4.761904761840796e-06,3.3333333333551707e-06,5.000000000032756e-06,0.00027205559483329395,0.0002049514904445271,1.7797329114617455e-05
150000000000.0,6,-0.0112384209,0.0088455983,0.027272293649999998,0.000358,-0.001029,0.00019,-0.15650432735,-0.6039523469,-9.786742500499999,-0.01599,0.061625,-2.3754,4.761904762062841e-06,3.3333333333551707e-06,5.000000000032756e-06,-0.00018228830577930732,-0.0003842036811139149,-1.218895826571309e-05
150000000000.0,6,-0.00938496405,0.0151218543,0.0233986669,-0.001768,5.4e-05,0.000185,-0.15656316725,-0.60364834075,-9.786840566999999,-0.015996,0.061594,-2.3754,4.761904761840796e-06,3.333333333133126e-06,9.99999999995449e-06,0.00027108766984310084,0.00017839460770585625,-9.362530796479251e-05
150000000000.0,6,-0.010061622899999999,0.01064021525,0.01099325465,-0.002835,6.2e-05,0.000183,-0.15677891355,-0.60335414125,-9.786840566999999,-0.016018,0.061564,-2.3754,4.761904761840796e-06,3.3333333333551707e-06,-9.99999999995449e-06,-0.00012069529669694878,0.00018795650008973652,7.185795362667224e-05
150000000000.0,6,-0.0060703163499999995,0.013954862949999999,0.0117483667,0.001427,2.6e-05,0.001258,-0.15688678669999997,-0.6032266547999999,-9.786840566999999,-0.016029,0.061551,-2.3754,4.761904761840796e-06,3.3333333333551707e-06,9.99999999995449e-06,0.00010533180965997813,0.00019310675929529175,7.739555455910097e-05
150000000000.0,6,-0.0042462794499999994,0.02295736765,0.0244773984,0.00036,3.5e-05,0.001256,-0.15691620665,-0.6029520686,-9.786840566999999,-0.016032,0.061522,-2.3754,4.761904762062841e-06,3.3333333333551707e-06,-9.99999999995449e-06,-0.0003537231238139732,-0.00037294223861583653,-7.522551132191357e-05
150000000000.0,6,0.00169655045,0.0159063863,0.0197113665,-0.000683,0.001112,-0.00195,-0.15672007364999999,-0.6026284491499999,-9.786840566999999,-0.016012,0.06149,-2.3754,4.761904761840796e-06,3.3333333333551707e-06,-1.0000000000065512e-05,0.00020745826507883453,-6.455225460433311e-05,-4.1148773368589187e-05
150000000000.0,6,0.0102577559,0.0083160392,0.0111991943,-0.000719,-0.002086,0.00019,-0.1567494936,-0.6023832829,-9.786840566999999,-0.016015,0.061464,-2.3754,4.761904761840796e-06,3.3333333333551707e-06,1.0000000000065512e-05,9.47629598154337e-05,0.00033883882550145294,7.591954310201543e-05
150000000000.0,6,0.005275977699999999,0.0059232166000000004,0.01615155255,-0.000688,0.001112,-0.000883,-0.15655336059999997,-0.6022263765,-9.7869386335,-0.015995,0.061449,-2.3754,4.761904762062841e-06,3.3333333333551707e-06,-1.0000000000065512e-05,-0.0003007238237684659,-0.00048406657273480924,-0.00010582125630659994
150000000000.0,6,0.003138128,0.0024026292499999997,0.018240369,0.001406,-0.003169,0.000196,-0.15666123375,-0.6022950230499999,-9.786840566999999,-0.016006,0.061456,-2.3754,4.761904761840796e-06,3.3333333333551707e-06,-9.99999999995449e-06,0.0004977913340438594,-3.173925658161991e-05,3.6714690878750234e-05
150000000000.0,6,0.004795451849999999,-0.0047464186,0.024977537549999998,-0.000707,4.4e-05,0.001254,-0.1565337473,-0.60233424965,-9.786840566999999,-0.015993,0.061459,-2.3754,4.761904761840796e-06,3.3333333333551707e-06,9.99999999995449e-06,-0.0006552101953394007,-0.00018152825209094559,0.00011505459053720579
150000000000.0,6,0.001765197,-0.0034715540999999996,0.028409865049999997,0.001434,-0.001036,-0.001943,-0.1564945207,-0.6024028962,-9.786840566999999,-0.015989,0.061467,-2.3754,4.761904761840796e-06,3.333333333133126e-06,2.999999999997449e-05,0.00046411566533689774,0.0008363210061546056,-1.9193929333125026e-05
150000000000.0,6,0.004726805299999999,-0.004059953099999999,0.012552512,-0.000693,0.001111,0.000185,-0.15630819434999998,-0.6024225095,-9.786840566999999,-0.01597,0.061468,-2.3754,4.761904762062841e-06,3.3333333333551707e-06,-2.999999999997449e-05,-0.0002043601481761595,-0.0005042303174251916,0.00011439546340890477
150000000000.0,6,0.0086102387,-0.0067469752,0.0059624432,-0.000696,4.7e-05,-0.000881,-0.1561610946,-0.6025794159,-9.786840566999999,-0.015954,0.061485,-2.3754,4.761904761840796e-06,3.3333333333551707e-06,1.0000000000065512e-05,0.00015087745368159988,4.44930188652215e-05,-0.00010278069885336083
150000000000.0,6,0.0032754210999999997,-0.007374600799999999,0.0150826277,0.001424,-0.001037,0.000192,-0.15621012785,-0.6026970957,-9.786840566999999,-0.015959,0.061497,-2.3754,4.761904761840796e-06,3.3333333333551707e-06,5.000000000032756e-06,-6.0188640515421166e-06,0.00012815812368471846,6.802920058522621e-06
150000000000.0,6,0.0027752819499999998,-0.00867888525,0.0235947999,0.001451,0.001096,-0.001946,-0.15600418819999998,-0.60304032845,-9.786840566999999,-0.015939,0.061532,-2.3754,4.761904762062841e-06,3.3333333333551707e-06,4.999999999921734e-06,-0.0003014537470519135,2.414571812381361e-05,-2.7612083651082364e-05
150000000000.0,6,0.00293218835,-0.00869849855,0.0235947999,0.000343,-0.002095,0.00126,-0.1561610946,-0.6030207151499999,-9.786840566999999,-0.015955,0.06153,-2.3754,4.761904761840796e-06,3.3333333333551707e-06,-2.999999999997449e-05,0.00017912642984684035,-0.00011976225407117624,-5.018774063811349e-05
150000000000.0,6,-0.0016279038999999999,-0.013788149899999998,0.0190837409,0.000362,-0.001027,-0.000877,-0.15623954780000002,-0.60331491465,-9.786840566999999,-0.015963,0.06156,-2.3755,4.761904761840796e-06,-4.999999999988347e-05,2.0000000000020002e-05,-4.2029349869653065e-05,0.0001167138983380056,9.087479710124385e-05
150000000000.0,6,-0.0085513988,-0.00697252815,0.024604884849999998,0.001429,-0.001036,-0.000875,-0.1564945207,-0.60355027425,-9.786840566999999,-0.015989,0.061584,-2.3754,4.761904761840796e-06,-5.0000000000105516e-05,5.000000000032756e-06,6.631196971793735e-05,-0.00013835707671194797,-9.592235365722679e-06
150000000000.0,6,-0.006197802799999999,-0.009639936949999999,0.023388860249999997,0.000366,3.7e-05,0.000188,-0.15660239385,-0.6037169872999999,-9.786742500499999,-0.016,0.061601,-2.3754,4.761904762062841e-06,-9.999999999998899e-05,4.999999999921734e-06,-8.608851719701938e-05,0.0001663273267067389,-0.00015175698601795073
150000000000.0,6,-0.0095124505,-0.00130428445,0.013807763199999998,-0.000726,-0.003151,0.000192,-0.15703388645,-0.60368756735,-9.786742500499999,-0.016044,0.061598,-2.3754,4.761904761840796e-06,-9.999999999998899e-05,0.0001100000000000545,0.007240775044607406,-0.004080156915138522,-0.0036335075868413613
150000000000.0,6,-0.0066096821,-0.0063350959,0.017249897349999998,-0.000692,0.001111,0.000185,-0.15709272635,-0.60374640725,-9.786742500499999,-0.01605,0.061603,-2.3754,-0.00019999999999997797,0.00019999999999997797,-0.0001100000000000545,-0.007381161025373138,0.004001458777628697,0.003709024874470064
150000000000.0,6,-0.0164947853,-0.00891424485,0.023065240799999998,0.001422,2.6e-05,0.002325,-0.15738692585,-0.6040013801499999,-9.786742500499999,-0.01608,0.06163,-2.3754,0.00019999999999997797,-0.00019999999999997797,0.00012999999999996348,0.007809310364612507,-0.003757221688460044,-0.003709588196702994
150000000000.0,6,-0.00973800345,0.0014121576,0.0323227184,0.000366,3.6e-05,0.000189,-0.15756344555000001,-0.60415828655,-9.786742500499999,-0.016098,0.061646,-2.3754,-0.00019999999999997797,0.00019999999999997797,-0.00012000000000000899,-0.007705744159943122,0.0037586550953754294,0.0038072160849058484
150000000000.0,6,-0.0058643767,-0.020976424349999998,0.0095516771,-0.001784,-0.002077,0.000189,-0.1578478384,-0.6046584257,-9.786742500499999,-0.016127,0.061697,-2.3754,-6.249999999985434e-06,-1.999999999990898e-05,-1.999999999990898e-05,0.00010872784507423572,8.839042915687045e-05,-4.209337102463462e-05
150000000000.0,6,-0.0056486304,-0.02099603765,0.00954187045,0.00035,-0.002095,0.000192,-0.15805377804999998,-0.6046388124,-9.786742500499999,-0.016148,0.061695,-2.3754,-6.249999999985434e-06,-2.0000000000131024e-05,9.99999999995449e-06,-0.00014898126730185368,-3.280821799900302e-05,-3.507445848635604e-06
150000000000.0,6,0.0034715540999999996,-0.01275845165,0.0056486304,-0.000714,-0.001021,0.001256,-0.15804397139999998,-0.6047957187999999,-9.786742500499999,-0.016147,0.061711,-2.3754,-6.249999999985434e-06,-1.999999999990898e-05,-1.4999999999987246e-05,4.2692855122233864e-05,-6.065172752833803e-05,-8.177336848960715e-05
150000000000.0,6,-0.0020299765499999997,-0.010983447999999998,0.0098262633,0.000365,0.0011,0.002321,-0.15808319799999998,-0.60492320525,-9.786742500499999,-0.016152,0.061724,-2.3754,-6.249999999985434e-06,-2.0000000000131024e-05,-1.4999999999987246e-05,0.00046150407051882836,-0.0001490024770032239,3.693194992616944e-05
150000000000.0,6,-0.0028635417999999997,-0.005187717849999999,0.027321326899999998,0.002501,1.9e-05,0.000192,-0.1581420379,-0.60517817815,-9.786644434,-0.016158,0.06175,-2.3754,-6.249999999985434e-06,-1.999999999990898e-05,9.99999999995449e-06,9.340502899023162e-05,0.00021754314128918928,-8.409029365283316e-05
150000000000.0,6,0.00022555294999999998,0.0046287388,0.03989345219999999,-0.000691,0.001111,0.000185,-0.15793609825,-0.6051291448999999,-9.786644434,-0.016137,0.061745,-2.3754,-6.249999999985434e-06,-1.999999999990898e-05,-9.99999999995449e-06,-0.00022869489889086603,-0.00028337030278047237,6.797228011008738e-05
150000000000.0,6,-0.007658993649999999,0.013582210249999999,0.013131104349999999,-0.001769,0.001117,0.002318,-0.1581420379,-0.6046584257,-9.786742500499999,-0.016158,0.061697,-2.3754,-6.249999999985434e-06,-2.0000000000131024e-05,-1.0000000000065512e-05,0.00021014096213592404,-0.0002530783866019348,-8.167306527451235e-05
150000000000.0,6,-0.0077080269,0.01362143685,0.013131104349999999,0.000375,0.001102,0.000187,-0.15809300464999998,-0.60468784565,-9.786742500499999,-0.016152,0.0617,-2.3754,-6.249999999985434e-06,-1.999999999990898e-05,2.0000000000020002e-05,-0.00023633772286472954,0.0002869167357133495,7.505719612366235e-05
150000000000.0,6,-0.00736479415,0.019927112799999997,0.017779456449999998,0.002486,-0.001048,0.001262,-0.158279331,-0.6045603592,-9.786742500499999,-0.016172,0.061687,-2.3753,-6.2500000002074785e-06,-2.0000000000131024e-05,-9.99999999995449e-06,0.00035458621361786347,-0.00016704772232034593,-1.5300345687863093e-05
150000000000.0,6,-0.0029616083000000002,0.0168478247,0.020780291349999997,0.000355,3.4e-05,0.002323,-0.15834797755000002,-0.6043249996,-9.786742500499999,-0.016178,0.061663,-2.3753,-6.249999999985434e-06,-1.999999999990898e-05,0.0005800000000000249,-0.0010116980838334663,0.010217287111169426,0.0017574124399337768
150000000000.0,6,0.0013533177,0.0187110882,0.019309293849999996,-0.000689,0.002175,0.00125,-0.15817145785,-0.6039523469,-9.786742500499999,-0.01616,0.061625,-2.3753,-6.249999999985434e-06,0.00019999999999997797,-0.0005900000000000905,0.0010717366979599088,-0.009916017144529832,-0.0017056051963557986
150000000000.0,6,0.008521978849999999,0.0208685512,0.01248386545,0.000351,-0.00103,0.001258,-0.15815184454999998,-0.6031089749999999,-9.786840566999999,-0.016159,0.061539,-2.3753,-6.249999999985434e-06,-9.999999999998899e-05,2.0000000000020002e-05,0.00027839910707030263,0.0007703501406193247,0.00024365720778462413
150000000000.0,6,0.008521978849999999,0.020947004399999997,0.012474058799999998,0.001435,0.001092,0.001256,-0.1581616512,-0.6031874281999999,-9.786840566999999,-0.01616,0.061547,-2.3753,-6.249999999985434e-06,2.4999999999941735e-05,-9.99999999995449e-06,0.0006927353271862294,2.3942430164236583e-05,-6.0802815066186844e-05
150000000000.0,6,0.0106107953,0.020329185450000002,0.02549729,0.003551,-0.001056,0.001263,-0.15815184454999998,-0.6031678148999999,-9.786840566999999,-0.016158,0.061544,-2.3753,-6.249999999985434e-06,2.4999999999941735e-05,2.0000000000020002e-05,-0.0004101655375102625,0.000351592859657357,7.886381310570623e-05
150000000000.0,6,0.0058251501,0.0079237732,0.0208685512,-0.000702,4.6e-05,0.000187,-0.1581616512,-0.6030305217999999,-9.786840566999999,-0.016159,0.061531,-2.3753,-6.249999999985434e-06,2.500000000016378e-05,-1.0000000000065512e-05,0.0006241655414119598,5.389568246805254e-05,-5.0159223585831414e-05
150000000000.0,6,0.01420983585,-0.0011964113,0.0112972608,-0.002836,6.4e-05,0.000183,-0.15785764505,-0.6028834220499999,-9.786840566999999,-0.016129,0.061516,-2.3753,-6.249999999985434e-06,2.4999999999941735e-05,4.0000000000040004e-05,0.0001768507966227531,0.00031686709048361905,4.7776198985473306e-05
150000000000.0,6,0.006276256,0.006541035549999999,0.01162088025,-0.000702,4.6e-05,0.000187,-0.15756344555000001,-0.6026970957,-9.786840566999999,-0.016098,0.061496,-2.3753,9.999999999998899e-05,-9.999999999998899e-05,-4.999999999999449e-05,-0.0008427362518699869,-0.00042110266061401447,4.679607313170381e-05
150000000000.0,6,0.006325289249999999,0.00652142225,0.01162088025,-0.000702,4.6e-05,0.000187,-0.15761247879999998,-0.6026774824,-9.786840566999999,-0.016103,0.061495,-2.3753,-9.999999999998899e-05,3.333333333332966e-05,9.99999999995449e-06,0.00029612040756678976,-0.00026706245469343415,-0.0002122718967278378
150000000000.0,6,0.007207887749999999,0.0077472535,0.023888999399999996,0.002481,-0.002111,0.000196,-0.1575928655,-0.6027069023499999,-9.786840566999999,-0.016101,0.061498,-2.3753,9.999999999998899e-05,3.333333333332966e-05,1.0000000000065512e-05,-0.00019413692438847302,1.8651510669265292e-07,0.00016371129933089729
150000000000.0,6,0.00791396655,0.01556315355,0.0215157901,0.000369,3.9e-05,-0.000879,-0.15739673249999997,-0.6024421228,-9.786840566999999,-0.016081,0.061471,-2.3753,-9.999999999998899e-05,3.333333333332966e-05,0.0002849999999999797,-0.00044529570584937034,0.0003803025888344802,-3.487878819282558e-05
150000000000.0,6,0.00469738535,0.00565843705,0.0171616375,0.002495,-0.001044,-0.000873,-0.1574751857,-0.6025598026,-9.786840566999999,-0.016089,0.061483,-2.3753,9.999999999998899e-05,-0.00019999999999997797,0.0002849999999999797,-0.0006256673774565208,0.009089262134893916,0.0014493752809204286
150000000000.0,6,0.005197524499999999,0.0023928226,0.015808319799999998,0.001441,3.1e-05,-0.001944,-0.1573771192,-0.6027363223,-9.786840566999999,-0.016079,0.061501,-2.3753,-9.999999999998899e-05,0.00019999999999997797,-0.0005600000000000049,0.00037301089176017266,-0.009233361153433872,-0.0012871678785937035
150000000000.0,6,0.01220927925,0.00318716125,0.019858466249999998,-0.001756,0.001123,-0.000884,-0.15705349975,-0.6026382558,-9.786840566999999,-0.016046,0.06149,-2.3753,1.999999999990898e-05,-9.999999999998899e-05,-2.999999999997449e-05,0.0008364532372449746,-0.0006014347124063679,-0.0002982528822036701
150000000000.0,6,0.01107170785,-0.00026477954999999995,0.0072961475999999996,-0.000703,4.7e-05,0.000187,-0.1569652399,-0.6026284491499999,-9.786840566999999,-0.016037,0.06149,-2.3753,2.0000000000131024e-05,-9.999999999998899e-05,-1.0000000000065512e-05,-0.0004742165659202685,-0.00040454152911384433,0.00010092766863600833
150000000000.0,6,-0.00526617105,0.0051779112,0.007600153749999999,0.000372,0.001104,0.000187,-0.1569456266,-0.60253038265,-9.786840566999999,-0.016035,0.06148,-2.3753,1.999999999990898e-05,-9.999999999998899e-05,2.0000000000020002e-05,-0.0003732371803097448,-0.00021361206790904141,-9.35299115582891e-05
150000000000.0,6,0.00140235095,-0.0008237585999999999,0.0170047311,0.00248,-0.00211,0.000196,-0.15702407979999997,-0.6028147755,-9.786840566999999,-0.016043,0.061509,-2.3753,2.0000000000131024e-05,-9.999999999998899e-05,1.0000000000065512e-05,-0.00017192216971729374,0.0002987710205637484,9.946364194863416e-05
150000000000.0,6,-0.0025987622499999996,-0.005060231399999999,0.0202801522,0.000369,4e-05,-0.000879,-0.1570633064,-0.6030697483999999,-9.786840566999999,-0.016047,0.061535,-2.3753,1.999999999990898e-05,-0.00010000000000021103,-5.000000000032756e-06,-0.00036416688784486617,-0.00022901466390834457,-5.5757223927851984e-05
150000000000.0,6,-0.007649186999999999,0.0028243152,0.01968194655,-0.000706,-0.001017,-0.000879,-0.15724963275,-0.6030207151499999,-9.786840566999999,-0.016066,0.06153,-2.3753,0.00017500000000003624,-9.999999999998899e-05,-5.000000000032756e-06,0.00032383009948735997,0.00020960532544522792,-0.00010059034090344199
150000000000.0,6,-0.004393379199999999,-0.010600988649999999,0.01623000575,-0.000694,0.001113,0.000185,-0.1572202128,-0.6032070415,-9.786840566999999,-0.016063,0.061549,-2.3753,0.00017500000000003624,-9.999999999998899e-05,0.0004533333333333056,-0.00010835798850428874,-0.00011866904015267465,0.00013787195329690444
150000000000.0,6,0.0021378497,-0.02313388735,0.006639102049999999,-0.00068,0.00218,-0.000884,-0.1570044665,-0.60355027425,-9.786840566999999,-0.016041,0.061584,-2.3754,0.00017500000000003624,-9.999999999998899e-05,0.00045333333333341663,0.00021570883394279872,0.00034033424707624604,-0.00010324490851597312
150000000000.0,6,-0.0043737659,-0.025075604049999995,0.023212340550000002,0.001446,0.001096,-0.000879,-0.1570829197,-0.6041484799,-9.786742500499999,-0.016049,0.061645,-2.3754,0.00017500000000003624,-9.999999999998899e-05,0.0004533333333333056,-0.020810313322182132,-0.0030302451929844487,-0.0024242793321780295
150000000000.0,6,0.00444241245,-0.025458063399999998,0.032901310749999996,0.000345,-0.003157,-0.000873,-0.1572202128,-0.60466823235,-9.786742500499999,-0.016063,0.061698,-2.3754,-0.000700000000000145,0.0009000000000001229,-0.0013400000000000079,0.020441923290574614,0.002951733407749124,0.002472786152463234
150000000000.0,6,0.013386077249999998,-0.01879934805,0.025556129899999995,-0.002835,6.5e-05,0.000183,-0.1570436931,-0.6048937852999999,-9.786742500499999,-0.016045,0.061721,-2.3754,-9.999999999998899e-05,-8.333333333387927e-06,-4.0000000000040004e-05,0.00012541371615087948,-0.00037694273145327806,7.714438301788251e-05
150000000000.0,6,0.00644296905,-0.0220257359,0.0135724036,-0.001776,-0.001009,0.000187,-0.1569848532,-0.6051095316,-9.786742500499999,-0.016039,0.061743,-2.3754,9.999999999998899e-05,-8.333333333165882e-06,6.0000000000060005e-05,2.7967548229833328e-05,0.00044735573365994874,2.0554964872340764e-06
150000000000.0,6,0.0014906108,-0.0177500365,0.0246146915,0.003555,-0.002117,-0.000869,-0.15711233965,-0.6056390907,-9.786644434,-0.016053,0.061797,-2.3754,-1.6666666666775853e-05,-8.333333333387927e-06,-4.0000000000040004e-05,-0.0003513041034952369,-0.0004858462028811683,-0.00012496640369442924
150000000000.0,6,0.0091201845,0.00051975245,0.032685564449999996,0.000366,3.9e-05,0.000189,-0.1569652399,-0.6058058037499999,-9.786644434,-0.016037,0.061814,-2.3754,-1.666666666655381e-05,-8.333333333387927e-06,-2.0000000000020002e-05,0.00017271471565697555,-0.00025470141467831553,1.9142454987637614e-05
150000000000.0,6,-0.00289296175,0.0010591181999999998,0.02250626175,-0.000695,4.9e-05,-0.000881,-0.1570633064,-0.6057371572,-9.786644434,-0.016048,0.061808,-2.3754,-1.666666666655381e-05,-8.333333333387927e-06,3.0000000000085514e-05,0.00026736512577964916,0.0006521731664432817,-0.0001270320541452638
150000000000.0,6,-0.00089240515,0.0032263878499999995,0.0027654753,-0.00068,0.003244,0.001249,-0.15697504655,-0.60566851065,-9.786644434,-0.016039,0.061801,-2.3754,-1.6666666666775853e-05,-8.333333333387927e-06,-2.0000000000020002e-05,-6.29140446451043e-05,-0.00030605544285222663,0.00019647370447627155
150000000000.0,6,-0.01466094175,0.018593408399999997,-0.00079433865,-0.002826,0.001131,0.000181,-0.15712214630000002,-0.60517817815,-9.786644434,-0.016053,0.06175,-2.3754,-1.6666666666775853e-05,-8.333333333165882e-06,2.0000000000020002e-05,-0.00011365487627621601,0.00020583482351788085,-4.908355865131803e-05
150000000000.0,6,-0.0328915041,0.0203586054,0.0188091547,0.001432,3e-05,0.000191,-0.15773996524999997,-0.6049918517999999,-9.786742500499999,-0.016117,0.061731,-2.3754,-1.666666666655381e-05,-8.333333333387927e-06,-2.0000000000020002e-05,0.00010152221651588828,-0.00026595069830026574,-0.00014496781484641535
150000000000.0,6,-0.0129643913,0.02150598345,0.03827535494999999,-0.000685,0.002178,0.000183,-0.15791648495,-0.6046388124,-9.786742500499999,-0.016135,0.061696,-2.3754,9.999999999998899e-05,-8.333333333387927e-06,2.999999999997449e-05,0.00024000555345177893,0.00011034415016686339,0.00011075088756584
150000000000.0,6,-0.0059232166000000004,0.012375992300000001,0.032911117399999995,-0.001769,5.6e-05,0.000185,-0.15808319799999998,-0.6043446129,-9.786742500499999,-0.016151,0.061665,-2.3754,-4.999999999988347e-05,-8.333333333165882e-06,-9.99999999995449e-06,4.047953717380842e-05,0.0002264017989264122,0.00011896054851624066
150000000000.0,6,-0.004648352099999999,0.014837461449999999,-0.0038834333999999996,-0.000708,4.6e-05,0.001254,-0.1581616512,-0.60396215355,-9.786742500499999,-0.016159,0.061626,-2.3753,-5.0000000000105516e-05,-8.333333333387927e-06,-1.0000000000065512e-05,1.2023793344959066e-05,-9.852518673136856e-06,-0.00011419257279431105
150000000000.0,6,-0.01658304515,0.013052651149999999,0.0028635417999999997,0.001452,0.003225,0.001252,-0.15819107114999997,-0.60382486045,-9.786742500499999,-0.016162,0.061612,-2.3753,9.999999999998899e-05,-8.333333333387927e-06,-9.99999999995449e-06,-7.183835966498298e-06,0.0003005952963783809,0.0002805310336078115
150000000000.0,6,0.0013533177,0.0015886773,0.0336760361,0.002498,2.1e-05,0.000193,-0.15818126449999997,-0.6040308001,-9.786742500499999,-0.016161,0.061633,-2.3753,-4.999999999988347e-05,-9.999999999998899e-05,0.0005499999999999394,-0.0013656747287791801,0.009177867431901854,0.0015692727962463224
150000000000.0,6,0.0033636809499999996,0.007688413599999999,0.0511710997,0.001434,0.001094,0.001256,-0.15808319799999998,-0.6041484799,-9.786742500499999,-0.016152,0.061645,-2.3753,-5.0000000000105516e-05,0.00019999999999997797,-0.0005399999999999849,0.0017502724287441762,-0.008920894090441944,-0.0017050203898691801
150000000000.0,6,0.00559959715,-0.0088455983,-0.0050798447,-0.002842,6.4e-05,0.001251,-0.1577889985,-0.6040700267,-9.786742500499999,-0.016121,0.061637,-2.3753,1.666666666655381e-05,-5.0000000000105516e-05,-2.0000000000020002e-05,-9.582279824876111e-05,-0.0005405728459628723,-9.297070800890622e-05
150000000000.0,6,0.00565843705,-0.008973084749999999,-0.00507003805,0.000342,-0.002093,0.00126,-0.15783803175,-0.6039425402499999,-9.786742500499999,-0.016126,0.061624,-2.3753,1.6666666666775853e-05,-4.999999999988347e-05,2.0000000000020002e-05,0.00028963524100646815,0.0008751901578472054,0.00021990476106854145
150000000000.0,6,0.01405292945,-0.00510926465,0.00405014645,0.001409,-0.002102,0.001262,-0.15771054529999998,-0.6040700267,-9.786742500499999,-0.016113,0.061637,-2.3753,1.6666666666775853e-05,-9.999999999998899e-05,0.0005600000000000049,-0.0010377949752303425,0.009220536904544163,0.0013426938141851488
150000000000.0,6,0.0026085689,0.008973084749999999,0.026644668049999997,0.001409,-0.002102,0.001262,-0.15777919184999997,-0.6040798333499999,-9.786742500499999,-0.01612,0.061638,-2.3753,1.666666666655381e-05,9.999999999998899e-05,2.0000000000020002e-05,-9.441292350790415e-05,0.00037503305803210374,-0.00012111055823558342
150000000000.0,6,-6.864654999999999e-05,-0.0014513841999999999,0.038010575399999996,-0.000716,-0.001019,0.001256,-0.15779880515,-0.6041288666,-9.786742500499999,-0.016122,0.061643,-2.3752,1.666666666655381e-05,9.999999999998899e-05,-0.0005600000000000049,0.001702273034780294,-0.009315704943833492,-0.001218747894814437
150000000000.0,6,-0.0012944778,0.00316754795,0.013327237349999998,-0.000716,-0.001019,0.001256,-0.1577693852,-0.60396215355,-9.786742500499999,-0.01612,0.061626,-2.3752,1.6666666666775853e-05,-0.00019999999999997797,0.0005500000000000504,-0.0016550779003810245,0.00889693569962402,0.0015038522309212543
150000000000.0,6,0.0023045627499999996,0.00452086565,0.00271644205,-0.000703,4.8e-05,0.000187,-0.15777919184999997,-0.6038150538,-9.786742500499999,-0.016121,0.061611,-2.3752,-9.999999999998899e-05,-9.999999999998899e-05,4.999999999921734e-06,0.0003539826536678031,0.0002257831777907615,-5.3859991657675965e-05
150000000000.0,6,0.0026281822,0.0111991943,0.0131997509,0.000342,-0.002093,0.00126,-0.15779880515,-0.6036189208,-9.786742500499999,-0.016122,0.061591,-2.3752,-5.0000000000105516e-05,-9.999999999998899e-05,5.000000000032756e-06,-0.0002802550036701962,0.00020609267499294148,-7.894185600493264e-05
150000000000.0,6,-0.003530394,0.000392266,0.03339164325,0.00035,-0.001027,0.001258,-0.1579262916,-0.6037366006,-9.786742500499999,-0.016135,0.061603,-2.3752,-4.999999999988347e-05,-9.999999999998899e-05,0.0013400000000000079,0.009740283000428916,0.015106077930265416,0.001907476858662084
150000000000.0,6,-0.00561921045,-0.00214765635,0.0296553096,-0.000711,-0.001018,0.000189,-0.15808319799999998,-0.60372679395,-9.786742500499999,-0.016151,0.061602,-2.3752,-4.999999999988347e-05,0.00029999999999996696,-0.0013400000000000079,-0.009479177860079416,-0.014787400258097216,-0.00187904235059419
150000000000.0,6,0.0005491723999999999,-0.00014709975,0.01677917815,0.000373,0.001105,0.000187,-0.15797532485,-0.60378563385,-9.786742500499999,-0.01614,0.061608,-2.3752,-5.0000000000105516e-05,-0.00019999999999997797,0.0006999999999999229,-0.00012988705845473625,0.0003352564551346582,7.385790703143269e-05
150000000000.0,6,0.00167693715,-0.004314926,0.01797558945,-0.000694,0.001114,0.000185,-0.15789687165,-0.60380524715,-9.786742500499999,-0.016132,0.06161,-2.3752,-5.0000000000105516e-05,-0.00019999999999997797,0.0007000000000000339,0.012556426942177998,0.016257611304892006,0.0018732725092387437
150000000000.0,6,0.0077766734499999995,-0.00318716125,0.0320285189,0.00144,0.001096,0.000189,-0.15771054529999998,-0.6040406067499999,-9.786742500499999,-0.016114,0.061634,-2.3752,-4.999999999988347e-05,0.00019999999999997797,0.0004899999999999904,0.008370903231732934,0.006886873284919881,0.00043423755289587196
150000000000.0,6,0.014464808749999999,-0.0006668522,0.0330876371,-0.001749,0.003253,0.001247,-0.15736731254999997,-0.6040209934499999,-9.786742500499999,-0.016078,0.061632,-2.3752,0.00029999999999996696,0.00019999999999997797,-0.0018899999999999473,-0.020876288433130826,-0.023690155068720964,-0.002269733046445621
150000000000.0,6,0.023830159499999996,-0.0031577413,0.0125917386,0.001409,-0.002101,0.001262,-0.15685736674999998,-0.6040700267,-9.786742500499999,-0.016026,0.061637,-2.3752,1.666666666655381e-05,-0.00014999999999987246,0.0006699999999999484,-0.00014316574686664557,-0.0003345651497104196,1.6407624496388162e-05
150000000000.0,6,0.0193975537,-0.0037657536,0.0034715540999999996,0.000364,4.1e-05,0.000189,-0.15646510075,-0.6040700267,-9.786742500499999,-0.015986,0.061637,-2.3752,1.6666666666775853e-05,-0.0001500000000000945,0.0006700000000000594,0.010101137539363196,0.015606722003962403,0.0016717694040133887
150000000000.0,6,0.017946169499999998,-0.00140235095,0.011562040349999999,-0.000708,4.9e-05,0.001254,-0.15621012785,-0.6040308001,-9.786742500499999,-0.01596,0.061633,-2.3752,1.6666666666775853e-05,0.00029999999999996696,-0.0013800000000000479,-0.010222970051629941,-0.0156753063574111,-0.0016427374283735849
150000000000.0,6,0.0061781894999999995,0.00456009225,0.016945891199999997,-0.000703,5e-05,0.000187,-0.15611206134999997,-0.6040013801499999,-9.786742500499999,-0.01595,0.06163,-2.3752,1.666666666655381e-05,-0.0001666666666666483,4.999999999999449e-05,4.627068637794857e-05,0.0004337910888239094,-1.1426209148672484e-05
150000000000.0,6,-0.01250347875,0.01179739995,0.017249897349999998,0.000364,4.1e-05,0.000189,-0.1564356808,-0.6039131203,-9.786742500499999,-0.015983,0.061621,-2.3752,1.666666666655381e-05,-0.0001666666666666483,1.0000000000065512e-05,6.206882055036222e-05,0.0002404023572895042,3.783051240692503e-05
150000000000.0,6,-0.017298930599999998,0.014837461449999999,0.01740680375,-0.000703,5e-05,0.000187,-0.15672988029999999,-0.6036581474,-9.786840566999999,-0.016013,0.061595,-2.3752,1.6666666666775853e-05,-0.0001666666666666483,0.0016800000000000148,0.014180123803907513,0.017928354647291478,0.002090862813276556
150000000000.0,6,-0.00361865385,0.003138128,0.010983447999999998,0.000372,0.001106,0.000187,-0.15693581995,-0.6034816277,-9.786840566999999,-0.016034,0.061577,-2.3752,-9.999999999998899e-05,0.0004999999999999449,-0.0016599999999999948,-0.0139224410999495,-0.017993009358213463,-0.0021071711228255047
150000000000.0,6,-0.0035794272499999995,0.00306948145,0.010983447999999998,-0.000703,4.9e-05,0.000187,-0.1569848532,-0.60341298115,-9.786840566999999,-0.016039,0.06157,-2.3752,5.0000000000105516e-05,-0.0002500000000000835,-4.0000000000040004e-05,-5.757253390074879e-05,-2.0392002217706207e-05,-1.915623112207221e-05
150000000000.0,6,0.008306232549999999,-0.0017848103,0.02085874455,0.000355,-0.001025,0.000191,-0.15689659334999997,-0.6035012409999999,-9.786840566999999,-0.01603,0.061579,-2.3752,4.999999999988347e-05,-0.00024999999999986144,0.0017099999999999893,0.014043016552524358,0.018158844276537023,0.0022300224960032713
150000000000.0,6,0.007129434549999999,-0.0016082905999999998,0.0165340119,-0.001762,0.001124,0.000183,-0.1566122005,-0.60337375455,-9.786840566999999,-0.016001,0.061566,-2.3752,-9.999999999998899e-05,0.0004999999999999449,-0.0017199999999999438,-0.014265526832318659,-0.01835137106561313,-0.0022281016684869703
150000000000.0,6,0.009894909849999998,-0.0013925443,0.0115914603,0.001422,-0.001033,0.000193,-0.15638664754999998,-0.6034424010999999,-9.786840566999999,-0.015978,0.061573,-2.3752,-0.00014999999999987246,-0.00029999999999996696,0.0013499999999999623,0.01013500862032659,0.015446390277796374,0.0017488914490042737
150000000000.0,6,0.01311149105,-0.006452775699999999,0.0235555733,0.000364,4.1e-05,0.000189,-0.1561610946,-0.6036189208,-9.786840566999999,-0.015955,0.061591,-2.3752,-0.0001500000000000945,9.999999999998899e-05,0.0005600000000000049,0.010441939094107122,0.008215038038912104,0.0006930747762956546
150000000000.0,6,0.016024066099999998,-0.00157887065,0.02176095635,-0.00177,5.9e-05,0.000185,-0.15593554164999998,-0.60370718065,-9.786840566999999,-0.015932,0.0616,-2.3752,0.00029999999999996696,0.00019999999999997797,-0.0019400000000000528,-0.02072735482236345,-0.02417397192630477,-0.0024315692818339743
150000000000.0,6,0.00987529655,-0.0036676871,0.014572681899999999,-0.000708,5e-05,0.001254,-0.1557688286,-0.6037169872999999,-9.786840566999999,-0.015915,0.061601,-2.3752,3.333333333332966e-05,-0.0001666666666666483,2.0000000000020002e-05,0.00019092182076101138,0.00021158157114786746,6.698106793921743e-05
150000000000.0,6,0.005933023249999999,-0.0071490478500000005,0.01413138265,-0.001773,-0.001004,0.000181,-0.15571979535,-0.6036777607,-9.786840566999999,-0.01591,0.061597,-2.3752,3.333333333332966e-05,-0.0001666666666666483,1.0000000000065512e-05,-0.0004997240276092135,0.0006104270781452925,-0.0001349127185768101
150000000000.0,6,-0.00352058735,0.00014709975,0.021908056099999997,0.000364,4.3e-05,0.00125,-0.15583747515,-0.60378563385,-9.786840566999999,-0.015922,0.061608,-2.3752,3.333333333332966e-05,-0.0001666666666666483,0.0016899999999999693,0.014408210666251621,0.01742682337785606,0.00220610559478112
150000000000.0,6,0.0007158854499999999,-0.0012552511999999998,0.0290669106,0.002508,2.7e-05,-0.000881,-0.15588650839999998,-0.6040308001,-9.786742500499999,-0.015927,0.061633,-2.3752,-9.999999999998899e-05,0.0004999999999999449,-0.0016800000000000148,-0.014029011434858615,-0.017975960279287273,-0.002110859383662095
150000000000.0,6,-0.00969877685,-0.00387362675,0.01664188505,-0.000706,-0.001013,0.000183,-0.1561022547,-0.60409944665,-9.786742500499999,-0.015949,0.06164,-2.3752,1.1111111111183902e-05,-5.555555555547542e-05,-9.99999999995449e-06,0.0003924579139236578,0.00010340212470905108,-2.4053753252789578e-05
150000000000.0,6,-0.009483030549999999,0.00034323274999999994,0.006325289249999999,-0.001773,-0.001005,0.000181,-0.15630819434999998,-0.6039817668499999,-9.786742500499999,-0.01597,0.061628,-2.3752,1.1111111110961858e-05,-5.555555555569747e-05,9.99999999995449e-06,-0.0004419618062037056,-6.9781275657820885e-06,9.857565783456812e-05
150000000000.0,6,-0.0103558224,0.015249340749999998,0.0163574922,0.001436,3.5e-05,0.000185,-0.1564945207,-0.6037758271999999,-9.786742500499999,-0.015989,0.061607,-2.3752,1.1111111111183902e-05,-5.555555555547542e-05,-9.99999999995449e-06,0.0001487408995279882,2.3914777406375265e-05,-0.00011747858707966685
150000000000.0,6,-0.012425025549999998,0.020240925599999997,0.01846592195,0.000369,4.3e-05,0.000183,-0.15681814014999998,-0.60353066095,-9.786840566999999,-0.016022,0.061582,-2.3752,1.1111111111183902e-05,-5.555555555547542e-05,4.999999999921734e-06,0.0001318602387398865,-0.0002516289632270574,0.00010838447117224315
150000000000.0,6,-0.008433719,0.017906942899999997,0.02117255735,0.000377,0.001109,0.000181,-0.15691620665,-0.6032854947,-9.786840566999999,-0.016032,0.061557,-2.3751,1.1111111110961858e-05,-5.555555555569747e-05,5.000000000032756e-06,-0.00011043911805638101,0.00030761062507589365,-0.00023543369555136667
150000000000.0,6,-0.0016867438,0.007698220249999999,0.0187895414,-0.00069,0.001117,0.000179,-0.15677891355,-0.60309916835,-9.786840566999999,-0.016018,0.061538,-2.3751,1.1111111111183902e-05,-5.555555555547542e-05,-9.99999999995449e-06,-0.00017722319057695418,0.000401765677642274,0.00022329253187252512
150000000000.0,6,0.00095124505,0.012866324799999999,0.01685763135,-0.000704,5.1e-05,0.001248,-0.15672007364999999,-0.6028834220499999,-9.786840566999999,-0.016012,0.061516,-2.3751,1.1111111111183902e-05,-5.555555555547542e-05,2.999999999997449e-05,-0.00021376659208831306,-0.00017376014481507163,-4.847591861809053e-05
150000000000.0,6,-0.0015592573499999998,0.00328522775,0.0195544601,0.001435,3.4e-05,0.000185,-0.1567494936,-0.6028834220499999,-9.786840566999999,-0.016015,0.061516,-2.3751,1.1111111110961858e-05,-5.555555555569747e-05,-2.999999999997449e-05,0.00044321472135232243,-0.0003837202105869686,-3.158185787485723e-05
150000000000.0,6,0.007394214099999999,-0.0008335652500000001,0.030331968449999996,-0.001774,-0.001005,0.000181,-0.15673968694999998,-0.60280496885,-9.786840566999999,-0.016014,0.061508,-2.3751,1.1111111111183902e-05,-5.555555555547542e-05,0.0017199999999999438,0.014530181903445238,0.01840320775898041,0.002155244185370178
150000000000.0,6,-0.0038442067999999996,-0.0055701772,0.0225356817,-0.000707,-0.001013,0.000183,-0.15701427315,-0.6028540021,-9.786840566999999,-0.016042,0.061513,-2.3751,-2.4999999999941735e-05,0.00012499999999993072,-9.99999999995449e-06,-0.0009107986091769077,-0.0005406509508576463,5.5672656393015996e-05
150000000000.0,6,-0.0031087080499999998,-0.01923084065,0.0050308114499999996,-0.002815,0.002201,0.000173,-0.15685736674999998,-0.6029618752499999,-9.786840566999999,-0.016026,0.061523,-2.3751,-2.4999999999941735e-05,0.00012499999999993072,-1.0000000000065512e-05,0.0008099539365073669,0.0001743185881932785,-0.00013514391601481685
150000000000.0,6,0.006933301549999999,-0.00508965135,0.0072765343,0.000374,4.5e-05,-0.000885,-0.15656316725,-0.60304032845,-9.786840566999999,-0.015996,0.061532,-2.3751,-2.500000000016378e-05,0.00012500000000015277,-9.99999999995449e-06,-0.0004641636526116627,0.00013835799362493795,0.00018675663093965789
150000000000.0,6,0.01256231865,7.845319999999999e-05,0.028664837949999997,0.00144,3.6e-05,-0.000883,-0.15635722759999998,-0.6032658813999999,-9.786840566999999,-0.015975,0.061555,-2.3751,-2.4999999999941735e-05,0.00012499999999993072,-0.0016899999999999693,-0.014040646397656932,-0.018210036866956214,-0.002285357642421708
150000000000.0,6,0.009208444349999999,-0.00683523505,0.030312355149999998,-0.001771,6e-05,0.001246,-0.1561610946,-0.60323646145,-9.786840566999999,-0.015954,0.061552,-2.3751,5.0000000000105516e-05,-0.0002500000000000835,9.99999999995449e-06,-0.00018584805517913444,0.0001880245327638974,7.739676898691622e-05
150000000000.0,6,0.0093555441,-0.013454723799999999,0.015347407249999999,-0.001762,0.001126,0.001245,-0.15600418819999998,-0.60335414125,-9.786840566999999,-0.015939,0.061564,-2.3751,4.999999999988347e-05,-0.00024999999999986144,0.0017199999999999438,0.014377906147037156,0.01861243386151279,0.002215855586235105
150000000000.0,6,-0.00027458619999999996,-0.0033636809499999996,0.014288289049999998,0.000374,4.5e-05,-0.000885,-0.15595515495,-0.60341298115,-9.786840566999999,-0.015933,0.06157,-2.3751,-9.999999999998899e-05,0.0004999999999999449,-0.0016999999999999238,-0.013976264324108749,-0.01833184466188187,-0.0022091806364621727
150000000000.0,6,-0.00114737805,-0.007384407449999999,0.011885659799999998,0.00038,0.002174,0.001246,-0.15597476824999998,-0.60358950085,-9.786840566999999,-0.015936,0.061588,-2.3751,9.999999999998899e-05,-0.0004999999999999449,0.0017099999999999893,0.01396120235134625,0.018084262690051922,0.0021365452492408538
150000000000.0,6,-0.00253992235,-0.0034323275,0.02160404995,0.000369,4.4e-05,0.000183,-0.15607283474999997,-0.60364834075,-9.786840566999999,-0.015946,0.061594,-2.3751,-9.999999999998899e-05,0.0004999999999999449,-0.0017200000000000548,-0.01396172452089025,-0.017966410592423543,-0.002253806077874225
150000000000.0,6,0.0008433719,-0.010600988649999999,0.011434553899999998,-0.00177,6.1e-05,0.001246,-0.15617090125,-0.60366795405,-9.786840566999999,-0.015956,0.061595,-2.3751,3.333333333332966e-05,-0.00029999999999996696,0.0013300000000000534,0.009855373994356195,0.015078438754996704,0.0017952176800311165
150000000000.0,6,0.00367749375,-0.0179853961,0.011866046499999998,0.000352,-0.002087,0.000187,-0.1561610946,-0.6039131203,-9.786742500499999,-0.015955,0.061621,-2.3751,3.333333333332966e-05,0.00029999999999996696,-0.0013400000000000079,-0.009908309861738213,-0.01471990513336685,-0.0017084352832239524
150000000000.0,6,-0.00565843705,-0.0033146476999999994,0.018897414549999998,-0.000706,-0.001013,0.000183,-0.15624935445,-0.6039229269499999,-9.786742500499999,-0.015964,0.061622,-2.3751,3.333333333332966e-05,-0.0004999999999999449,0.0016899999999999693,0.013930507690653987,0.017123575842937777,0.0022185601194061877
150000000000.0,6,-0.00854159215,-0.0072176943999999995,0.029057103949999996,-0.000703,5.2e-05,0.001248,-0.15635722759999998,-0.6040504134,-9.786742500499999,-0.015975,0.061635,-2.3751,-4.999999999988347e-05,0.00024999999999986144,1.0000000000065512e-05,2.7005735089728755e-05,-0.0001952370095101852,9.853470733088565e-06
150000000000.0,6,0.0023045627499999996,-0.01056176205,0.0338329425,0.000359,4.2e-05,0.002318,-0.1562787744,-0.6043053863,-9.786742500499999,-0.015967,0.061661,-2.3751,-5.0000000000105516e-05,0.0002500000000000835,-0.0017200000000000548,-0.013765318579746347,-0.01786180893130629,-0.00215468504628219
150000000000.0,6,0.01658304515,-0.00626644935,0.01723028405,-0.001769,6.1e-05,0.001246,-0.15589631505,-0.6042465464,-9.786742500499999,-0.015928,0.061655,-2.375,9.999999999998899e-05,-0.0004999999999999449,0.0017300000000000093,0.013216945110667004,0.01813365413943191,0.0022517901859436043
150000000000.0,6,-0.0032067745499999994,-0.00328522775,0.0042168595,0.000356,-0.001022,0.001252,-0.15600418819999998,-0.60423673975,-9.786742500499999,-0.015939,0.061654,-2.375,-2.4999999999941735e-05,2.4999999999941735e-05,-2.999999999997449e-05,0.0005037080001186744,-0.00021011005226023727,-0.00010650459202959928
150000000000.0,6,-0.00177500365,-0.0044914457,0.018259982299999998,0.002504,2.7e-05,0.000187,-0.15609244805,-0.6045309392499999,-9.786742500499999,-0.015948,0.061684,-2.375,-2.4999999999941735e-05,2.4999999999941735e-05,2.999999999997449e-05,0.0007766340043922626,0.000762363865972393,5.4905483123743326e-05
150000000000.0,6,-0.01116977435,0.0042756994,0.030979207349999996,-0.000689,0.001119,0.000179,-0.15613167465,-0.6044720993499999,-9.786742500499999,-0.015952,0.061678,-2.375,-2.500000000016378e-05,2.500000000016378e-05,-4.0000000000040004e-05,-0.0006400375182214479,-0.000611388860113804,8.731130620415195e-06
150000000000.0,6,-0.006943108199999999,0.005197524499999999,0.029047297299999997,-0.001769,6.1e-05,0.001247,-0.15630819434999998,-0.6043446129,-9.786742500499999,-0.01597,0.061665,-2.375,-2.4999999999941735e-05,2.4999999999941735e-05,-0.00025999999999992696,-0.0009588623606024901,-0.0006498777236814135,-0.0004479107739537788
150000000000.0,6,-0.00844352565,-0.009669356899999999,0.01318994425,-0.001766,0.001125,0.002312,-0.15630819434999998,-0.604285773,-9.786742500499999,-0.01597,0.061659,-2.375,-1.2499999999970868e-05,0.00029999999999996696,-0.0015100000000000113,-0.013267875651316173,-0.01843102697133081,-0.0019535656187458852
150000000000.0,6,-0.007992419749999998,-0.007021561399999999,0.006894074949999999,-0.000711,-0.001014,0.00125,-0.1566122005,-0.6043936461499999,-9.786742500499999,-0.016001,0.06167,-2.375,-1.2499999999970868e-05,-1.999999999990898e-05,7.999999999996898e-05,0.0004941191167458156,0.0016543809733406967,1.0717096236477486e-05
150000000000.0,6,-0.00099047165,-0.00748247395,0.02888058425,-0.000694,0.001117,0.001247,-0.15642587414999998,-0.6045309392499999,-9.786742500499999,-0.015982,0.061685,-2.375,-1.2499999999970868e-05,-2.0000000000131024e-05,1.0000000000065512e-05,-0.0005813573310141998,-0.0004975716187671786,9.254562222798385e-05
150000000000.0,6,0.0026576021499999996,-0.0122583125,0.029625889649999997,-0.002836,7e-05,0.001245,-0.1563376143,-0.6045407459,-9.786742500499999,-0.015973,0.061685,-2.375,-1.2500000000192912e-05,-1.999999999990898e-05,-8.000000000008001e-05,-0.0004560548979324966,-0.0009979290601282997,8.937863321172024e-06
150000000000.0,6,-0.0077766734499999995,-0.033636809499999996,0.0284000584,0.000369,0.001108,0.002316,-0.15637684089999998,-0.60502127175,-9.786742500499999,-0.015977,0.061734,-2.3749,-1.2499999999970868e-05,-2.0000000000131024e-05,2.0000000000020002e-05,0.0005735877997882222,0.0009435260874635087,-0.00010142918955778624
150000000000.0,6,0.00075511205,-0.019868272899999997,0.0168478247,0.00034,-0.003153,0.001256,-0.15652394065,-0.605462571,-9.786644434,-0.015993,0.061779,-2.3749,-1.2499999999970868e-05,-1.999999999990898e-05,-2.999999999997449e-05,-0.0007252315262490094,-0.0004190623770543578,0.0002139799654980179
150000000000.0,6,0.00099047165,-0.01515127425,0.020407638649999997,-0.00072,-0.001016,0.003385,-0.15662200715,-0.6059921301,-9.786644434,-0.016002,0.061833,-2.3749,-1.2499999999970868e-05,-1.666666666655381e-05,2.999999999997449e-05,-0.0006908075590259036,0.00027174975385646505,0.00026891286937087006
150000000000.0,6,0.00101008495,-0.015180694199999997,0.020407638649999997,-0.001778,5.9e-05,0.003381,-0.1566318138,-0.6059725168,-9.786644434,-0.016003,0.061831,-2.3749,-1.2499999999970868e-05,-1.6666666666775853e-05,2.999999999997449e-05,-7.731915660543626e-05,0.0005088067186505008,1.7884939296934632e-05
150000000000.0,6,-0.01130706745,-0.0263210486,0.00797280645,-0.002839,6.8e-05,0.002312,-0.15688678669999997,-0.60619806975,-9.786644434,-0.016029,0.061854,-2.3748,2.4999999999941735e-05,-1.6666666666775853e-05,-2.0000000000020002e-05,-0.0002371086084621346,-6.218158381599004e-05,0.0001346411382183929
150000000000.0,6,0.0008041452999999999,-0.01697531115,0.0025693423,0.000362,4.2e-05,0.002318,-0.15672007364999999,-0.60641381605,-9.786644434,-0.016013,0.061876,-2.3748,2.4999999999941735e-05,-1.666666666655381e-05,-9.99999999995449e-06,0.00020192530446674212,1.1764348459619711e-05,-1.6262031748356942e-06
150000000000.0,6,-0.0309301741,-0.014298095700000001,0.0411487034,0.00251,0.001091,0.001252,-0.15716137289999998,-0.60684530865,-9.786644434,-0.016058,0.06192,-2.3748,2.500000000016378e-05,-1.666666666655381e-05,2.0000000000020002e-05,-0.0004048025797912247,0.0001178954688716427,6.190650761671301e-05
150000000000.0,6,-0.01352337035,-0.023153500649999995,0.0358727257,0.002496,2.4e-05,0.002321,-0.15736731254999997,-0.6074140943499999,-9.7865463675,-0.016078,0.061979,-2.3748,2.4999999999941735e-05,-1.6666666666775853e-05,-2.0000000000020002e-05,0.0005248129799523271,0.0001339848930423937,-0.0003799257218434632
150000000000.0,6,-0.01038524235,-0.01644575205,0.026732927899999998,-0.001768,0.001123,0.00338,-0.15750460565,-0.6075415808,-9.7865463675,-0.016093,0.061992,-2.3748,0.00029999999999996696,-0.0008000000000001339,0.0018900000000000583,-0.004826103167153442,0.009321275385972827,0.002091961780778709
150000000000.0,6,0.0140235095,-0.031400893299999996,0.00561921045,-0.002851,-0.000999,0.003381,-0.15723001944999998,-0.6078553936,-9.7865463675,-0.016064,0.062024,-2.3747,-0.00039999999999995595,0.000700000000000145,-0.0018800000000001038,0.003940526732171018,-0.008655016704107732,-0.0014534034352435832
150000000000.0,6,0.00212804305,-0.0389912404,-0.0026477955,0.000367,0.001106,0.003383,-0.15715156625,-0.60849282585,-9.786448301,-0.016057,0.062089,-2.3747,1.6666666666775853e-05,-5.0000000000105516e-05,1.4999999999987246e-05,0.0004100832144241437,-9.789812151672628e-05,-6.608224136411128e-05
150000000000.0,6,0.00844352565,-0.029400336699999995,0.0234967334,0.001434,0.001097,0.003385,-0.15703388645,-0.6091008381499999,-9.786448301,-0.016045,0.062151,-2.3747,1.666666666655381e-05,-4.999999999988347e-05,1.5000000000098268e-05,-0.0010829085516127906,0.000585385875549127,0.0002629567867186017
150000000000.0,6,-0.022771041299999996,-0.00854159215,0.0394815729,0.000359,4e-05,0.003385,-0.15739673249999997,-0.6094636842,-9.786448301,-0.016082,0.062188,-2.3746,1.666666666655381e-05,-5.0000000000105516e-05,-4.0000000000040004e-05,0.0003767813271017828,-0.0007888133638316308,3.782626086683283e-05
150000000000.0,6,-0.022849494499999998,-0.0086690786,0.03949137955,-0.000704,0.001114,0.004449,-0.1573182793,-0.60933619775,-9.786448301,-0.016073,0.062175,-2.3746,1.6666666666775853e-05,-5.0000000000105516e-05,1.4999999999987246e-05,4.048733090945139e-05,0.0001432485581802645,0.00010205711343017759
150000000000.0,6,-0.011101127799999999,-0.02023111895,0.0183580488,0.002488,2.2e-05,0.004456,-0.1575340256,-0.60988537015,-9.786448301,-0.016096,0.062232,-2.3745,1.6666666666775853e-05,-0.00029999999999996696,1.4999999999987246e-05,-2.144329846916204e-06,0.0006030997885786427,0.0001849960779194762
150000000000.0,6,-0.0015298374,-0.01346453045,0.018632634999999998,-0.000707,4.9e-05,0.003383,-0.1575340256,-0.61021879625,-9.786350234499999,-0.016096,0.062266,-2.3745,1.666666666655381e-05,-0.00029999999999996696,0.0018500000000000183,0.014854947577241283,0.017192651895882705,0.0023819998981062032
150000000000.0,6,0.0081002929,-0.00928689755,0.006501808949999999,-0.000718,4.7e-05,0.005518,-0.15758305884999999,-0.6103658959999999,-9.786350234499999,-0.016101,0.06228,-2.3744,0.00014999999999987246,-9.999999999998899e-05,4.999999999999449e-05,0.00047785712467613567,0.0007334371328249212,8.031981028524399e-05
150000000000.0,6,-0.01599464615,-0.023673253099999996,0.00438357255,-0.000712,4.8e-05,0.004451,-0.157887065,-0.6106404821999999,-9.786350234499999,-0.016132,0.062308,-2.3744,0.0001500000000000945,-0.00029999999999996696,0.000140000000000029,-0.017211777874030228,-0.006716580855832266,-4.6549287557172414e-05
150000000000.0,6,-0.01772061655,-0.0057466969,0.004540478949999999,0.000375,0.003234,0.005514,-0.15795571155,-0.61061106225,-9.786350234499999,-0.016139,0.062305,-2.3743,-0.00029999999999996696,0.00019999999999997797,-0.00022999999999995246,0.017615887734387575,0.006366309192935571,0.00048542543745229427
150000000000.0,6,-0.0413644497,0.0021966895999999997,0.02368305975,0.000361,0.002167,0.006584,-0.15855391719999998,-0.6106208689,-9.786350234499999,-0.0162,0.062307,-2.3743,-0.00019999999999997797,0.0004999999999999449,-0.0017900000000000693,-0.013223411229911046,-0.01807793344779851,-0.002543556140949234
150000000000.0,6,-0.020123245799999998,-0.010061622899999999,0.0508769002,0.002484,1.9e-05,0.005524,-0.15884811669999999,-0.6110915881,-9.786252167999999,-0.01623,0.062354,-2.3742,0.00019999999999997797,-0.0006999999999999229,0.0018400000000000638,0.012734550488705969,0.01860157341232571,0.0028679502810364313
150000000000.0,6,-0.0093751574,-0.0128074849,0.04412011835,0.000345,3.6e-05,0.006587,-0.15911289625,-0.6114838541,-9.786252167999999,-0.016257,0.062395,-2.3741,0.00019999999999997797,-0.00029999999999996696,0.00014999999999998348,-0.017579376059987786,-0.006433527450254939,-0.000552319500145948
150000000000.0,6,0.014464808749999999,-0.017632356699999997,0.0013140911,-0.001811,-0.002079,0.007655,-0.15901482975,-0.6116015338999999,-9.786252167999999,-0.016247,0.062406,-2.374,-0.00039999999999995595,0.00039999999999995595,-0.0006400000000000849,0.012070215274412772,0.002832065768997305,-0.00022843661826136424
150000000000.0,6,-0.0027262486999999995,-0.012895744749999999,-0.02740958675,-0.001775,0.00112,0.005514,-0.15903444304999997,-0.6115426939999999,-9.786252167999999,-0.016249,0.062401,-2.374,0.001100000000000101,-0.0009999999999998899,-0.00037999999999993594,-0.006550714958646786,-0.018322066807178627,-0.004405855136532147
150000000000.0,6,-0.007394214099999999,-0.01077750835,0.00234378935,0.002465,-0.001048,0.00766,-0.15930902924999998,-0.61186631345,-9.786252167999999,-0.016277,0.062433,-2.3739,-0.0008000000000001339,0.00039999999999995595,0.0010999999999999899,-0.0073345247341680755,0.01551332940695227,0.004829672909238351
150000000000.0,6,-0.0056976636499999995,-0.00095124505,0.05635881755,0.00034,3.5e-05,0.007655,-0.1593580625,-0.61196437995,-9.786252167999999,-0.016282,0.062443,-2.3738,0.00023333333333330764,-9.999999999998899e-05,-5.999999999994898e-05,0.00017736045193150057,-0.0008011666515395088,-0.00020382120104075335
150000000000.0,6,-0.00952225715,-0.0058643767,0.057104122949999996,-0.001771,0.002184,0.00658,-0.15941690239999998,-0.61198399325,-9.786252167999999,-0.016288,0.062446,-2.3738,0.00023333333333352968,-9.999999999998899e-05,5.999999999994898e-05,-0.0004575806278681732,0.0003407834698276879,-0.0001181565264139206
150000000000.0,6,0.00985568325,-0.011032481249999998,0.01624961905,-0.001793,5.2e-05,0.007651,-0.15934825584999998,-0.6120526398,-9.786252167999999,-0.016281,0.062453,-2.3737,0.00023333333333330764,-0.000500000000000167,-0.0011499999999999844,0.005904549767134157,-0.014942998127425167,-0.004742835081331109
150000000000.0,6,0.0040991797,-0.00267721545,-0.01309187775,-0.000726,4.4e-05,0.007653,-0.15927960929999999,-0.61218012625,-9.786252167999999,-0.016274,0.062466,-2.3736,-0.000700000000000145,0.000300000000000189,0.0010099999999999554,-0.006419100800788086,0.013051401221927827,0.004368754881795084
150000000000.0,6,0.0042462794499999994,-0.0027556686499999998,-0.01309187775,-0.000721,4.5e-05,0.006586,-0.15941690239999998,-0.61210167305,-9.786252167999999,-0.016289,0.062458,-2.3736,0.0003500000000000725,-0.00010000000000021103,-2.999999999997449e-05,-0.0003297517544579437,-0.0004210285024290883,2.243106820037921e-05
150000000000.0,6,0.00348136075,0.0079237732,0.01893664115,0.001413,2.8e-05,0.006589,-0.15940709574999998,-0.6120134131999999,-9.786252167999999,-0.016287,0.062448,-2.3735,0.0003500000000000725,-0.0004999999999999449,-0.0011200000000000099,0.005086024888996045,-0.01291148007496834,-0.004502975242063494
150000000000.0,6,0.00967916355,-0.00157887065,0.027478233299999995,-0.001779,0.00112,0.006582,-0.15917173615,-0.6119349599999999,-9.786252167999999,-0.016263,0.06244,-2.3734,-4.999999999988347e-05,-9.999999999998899e-05,4.999999999999449e-05,0.0008240657762729406,0.00021517191204556418,3.9279468777089765e-06
150000000000.0,6,0.0030400615,0.0149845612,0.0324207849,0.001413,2.8e-05,0.006589,-0.15911289625,-0.6118957333999999,-9.786252167999999,-0.016257,0.062436,-2.3734,-5.0000000000105516e-05,-9.999999999998899e-05,-2.0000000000020002e-05,-7.550894637920608e-05,-9.877349312858996e-05,0.00016109774032673635
150000000000.0,6,-0.01758332345,0.0202801522,0.03019467535,0.000359,0.001103,0.005518,-0.15928941594999999,-0.61149366075,-9.786252167999999,-0.016276,0.062396,-2.3733,-1.6666666666775853e-05,-4.999999999988347e-05,-2.999999999997449e-05,0.00038222145517171485,-0.00030390338986019394,0.00021548253454353045
150000000000.0,6,0.005315204299999999,0.013405690549999998,0.0111991943,0.000345,3.7e-05,0.006588,-0.1592992226,-0.61135636765,-9.786252167999999,-0.016276,0.062381,-2.3732,-1.666666666655381e-05,-5.0000000000105516e-05,4.0000000000040004e-05,-0.0002749728640268831,0.00029072519448103407,2.1014699768985567e-05
150000000000.0,6,0.0180638493,0.018054042649999998,0.008835791649999999,-0.000717,4.7e-05,0.005518,-0.15901482975,-0.6109248750499999,-9.786350234499999,-0.016248,0.062337,-2.3732,-1.6666666666775853e-05,-9.999999999998899e-05,-2.0000000000020002e-05,0.00016145161314932988,9.667776753974344e-05,9.161185989495224e-05
150000000000.0,6,0.0241635856,0.0166320784,-0.01028717585,-0.001798,-0.001011,0.006586,-0.15869121029999997,-0.6105424157,-9.786350234499999,-0.016214,0.062298,-2.3731,-1.6666666666775853e-05,-9.999999999998899e-05,5.000000000032756e-06,0.001046938767935858,6.5997423561725554e-06,0.0004057707390502721
150000000000.0,6,0.00031381279999999996,0.022643554849999997,-0.00157887065,-0.000728,4.5e-05,0.007653,-0.15877947015,-0.61012072975,-9.786350234499999,-0.016223,0.062255,-2.3731,-1.666666666655381e-05,-9.999999999998899e-05,4.999999999921734e-06,8.456692101031088e-05,0.0003551790825688794,3.818533145951569e-05
150000000000.0,6,0.00922805765,0.0499158485,0.0177696498,0.001402,-0.001037,0.006591,-0.15872063025,-0.6094146509499999,-9.786448301,-0.016217,0.062183,-2.373,-1.6666666666775853e-05,-9.999999999998899e-05,3.0000000000085514e-05,0.000926155318552481,-0.00019446589722815766,0.00036598367931445913
150000000000.0,6,0.00244185585,0.0441887649,0.037412369749999994,0.000359,0.002169,0.006584,-0.1585146906,-0.6087772187,-9.786448301,-0.016196,0.062117,-2.3729,-3.333333333332966e-05,-5.0000000000105516e-05,5.999999999994898e-05,-0.00040693683089432914,-1.6666988100988434e-05,-4.053191583867216e-05
150000000000.0,6,0.007600153749999999,0.03980519235,0.027733206199999996,-0.001789,0.00112,0.007649,-0.15842643074999999,-0.6079828800499999,-9.7865463675,-0.016187,0.062037,-2.3728,-3.333333333332966e-05,-4.999999999988347e-05,-9.99999999995449e-06,0.0009566119501478315,-2.866196699935486e-05,0.00014277502521424512
150000000000.0,6,0.0024516625,0.04308061345,0.0056486304,-0.00286,6.4e-05,0.006582,-0.1583773975,-0.60706105495,-9.7865463675,-0.016181,0.061943,-2.3728,-3.333333333332966e-05,-4.999999999988347e-05,0.00014999999999998348,2.955205358569357e-06,0.0004548800365395955,0.0003062860377220297
150000000000.0,6,0.0037657536,0.04896460345,0.005687856999999999,0.002474,2e-05,0.006591,-0.15834797755000002,-0.6063647828,-9.786644434,-0.016178,0.061871,-2.3727,-0.0001666666666666483,-5.0000000000105516e-05,-2.0000000000020002e-05,0.0002861167395144318,-8.63279975469311e-05,0.00015610406645184122
150000000000.0,6,0.009718390149999999,0.04843504435,0.024889277699999997,0.001406,2.9e-05,0.006589,-0.1581616512,-0.6056881239499999,-9.786644434,-0.01616,0.061803,-2.3727,-0.0001666666666666483,-9.999999999998899e-05,-4.999999999999449e-05,0.00024296599072842068,-0.000132758217372686,2.4495689387067643e-05
150000000000.0,6,0.00013729309999999998,0.04808200495,0.0318127726,0.001414,0.001095,0.006588,-0.15815184454999998,-0.6050310783999999,-9.786644434,-0.016159,0.061735,-2.3726,-0.0001666666666666483,0.0005999999999999339,-0.00048000000000003595,-0.01625358365986937,-0.023681123024056117,-0.004424367181323753
150000000000.0,6,0.00157887065,0.04588531535,0.007462860649999999,0.00142,3.3e-05,0.003387,-0.15824991104999997,-0.6043348062499999,-9.786742500499999,-0.016169,0.061664,-2.3726,-9.999999999998899e-05,9.999999999998899e-05,-0.0007800000000000029,0.017724793270805006,0.00634574176876157,0.0008349516186716976
150000000000.0,6,0.0157494799,0.054966273249999996,0.0132193642,0.000347,4.1e-05,0.004453,-0.15790667830000002,-0.6033835611999999,-9.786742500499999,-0.016133,0.061567,-2.3725,-0.00039999999999995595,0.0004999999999999449,-0.00031999999999998696,-0.003950917225640567,0.007800665817030428,0.0038504840629269427
150000000000.0,6,-0.012797678249999998,0.04796432515,0.026585828149999997,-0.000703,0.00218,0.004447,-0.15793609825,-0.602520576,-9.786840566999999,-0.016136,0.061478,-2.3725,-3.333333333332966e-05,-9.999999999998899e-05,-4.999999999921734e-06,0.0003451991106338814,-0.0003356493077952827,0.0001953335464021655
150000000000.0,6,0.020182085699999998,0.04666984735,0.01424906245,0.001409,-0.001032,0.003389,-0.15739673249999997,-0.6013830045999999,-9.7869386335,-0.016081,0.061362,-2.3725,-3.333333333332966e-05,-3.333333333332966e-05,-5.000000000032756e-06,-0.0007612723209239128,0.00033557431960096196,0.0004224742181598781
150000000000.0,6,0.0201036325,0.0466012008,0.01424906245,-0.000705,0.002181,0.004447,-0.1573182793,-0.6013045513999999,-9.7869386335,-0.016073,0.061354,-2.3724,-3.333333333332966e-05,-3.333333333332966e-05,-2.0000000000020002e-05,0.0005071130301676011,-0.0007744394117010778,-0.00037592515270205157
150000000000.0,6,0.026791767799999998,0.0407760507,0.0033832942499999997,-0.002863,-0.002061,0.002316,-0.15697504655,-0.6004219529,-9.7870367,-0.016038,0.061264,-2.3724,-2.4999999999941735e-05,-3.333333333332966e-05,-1.0000000000065512e-05,-0.0009155048210321287,0.00011548207438893954,0.00016861619161315233
150000000000.0,6,0.01013026945,0.03227368515,0.009561483749999999,0.000352,0.001107,0.004451,-0.15676910689999998,-0.5998531671999999,-9.7870367,-0.016017,0.061206,-2.3723,-2.500000000016378e-05,-4.999999999988347e-05,1.4999999999987246e-05,-0.0007312363497711943,-0.00043512811430401754,0.00017653105970401317
150000000000.0,6,0.013307624049999998,0.04776819215,0.012444638849999998,0.001438,0.002167,0.002316,-0.15650432735,-0.599186315,-9.7870367,-0.01599,0.061138,-2.3723,-2.4999999999941735e-05,-5.0000000000105516e-05,1.5000000000098268e-05,-0.001197159662740005,-0.0007354165985924421,-0.0002587782780430897
150000000000.0,6,-0.0262229821,0.0410310236,0.03507838705,-0.000708,0.002182,0.004447,-0.15693581995,-0.59843120295,-9.7871347665,-0.016034,0.061061,-2.3723,-2.4999999999941735e-05,9.999999999998899e-05,-3.0000000000085514e-05,-0.0010777978696157597,0.0002343850860719865,0.000630008861447956
150000000000.0,6,0.0091986377,0.03297976395,0.020005566,-0.00072,5.2e-05,0.003384,-0.15673968694999998,-0.59786241725,-9.7871347665,-0.016014,0.061003,-2.3722,2.4999999999941735e-05,-9.999999999998899e-05,1.250000000008189e-05,0.0006749101308951844,-0.00018182746570505337,-0.00029752258079880634
150000000000.0,6,0.0053740442,0.0303025485,0.0116699135,-0.000712,0.001118,0.003382,-0.15651413399999997,-0.5972838249,-9.787232833,-0.01599,0.060944,-2.3722,2.4999999999941735e-05,5.0000000000105516e-05,1.2499999999970868e-05,-0.00011944163737413749,-0.00020433249645890328,4.9167771438540786e-05
150000000000.0,6,0.014808041499999999,0.03282285755,0.00962032365,-0.001796,-0.001004,0.003384,-0.1562199345,-0.5966561992999999,-9.787232833,-0.01596,0.060879,-2.3722,2.500000000016378e-05,4.999999999988347e-05,1.2499999999970868e-05,-0.00037584785022484746,0.00033904663334149987,0.0005498824445195616
150000000000.0,6,0.0112384209,0.0102577559,0.022045349199999998,0.000334,-0.002086,0.002322,-0.15609244805,-0.5965385195,-9.787232833,-0.015947,0.060867,-2.3722,2.4999999999941735e-05,-9.999999999998899e-05,1.250000000008189e-05,-0.0004500311763621784,0.0007071975179144818,-9.264663895885983e-05
150000000000.0,6,0.0146903617,0.0205351251,0.0204174453,0.000351,4.5e-05,0.002318,-0.15579824854999996,-0.5963423865,-9.787232833,-0.015917,0.060847,-2.3721,2.4999999999941735e-05,-0.00014999999999987246,-1.0000000000065512e-05,-0.00010203488582709308,-0.00022458646638479074,4.612039692113157e-05
150000000000.0,6,0.0050308114499999996,0.0048837117,0.01774022985,-0.001775,0.001128,0.002313,-0.15556288894999998,-0.59609722025,-9.787330899499999,-0.015893,0.060822,-2.3721,2.500000000016378e-05,-0.0001500000000000945,2.0000000000020002e-05,0.00019658392638314398,0.000492027702347686,-0.00013539323551620824
150000000000.0,6,0.00612915625,-0.0014709974999999999,0.02582090945,0.000351,4.5e-05,0.002318,-0.15546482244999998,-0.5961854800999999,-9.787232833,-0.015883,0.060831,-2.3721,2.4999999999941735e-05,-0.0001500000000000945,9.99999999995449e-06,-0.00015907712647554584,0.0006233468460241642,0.00039597592834179907
150000000000.0,6,0.00736479415,-0.007462860649999999,0.025948395899999997,0.002495,3e-05,0.000187,-0.15535694929999996,-0.5964796796,-9.787232833,-0.015872,0.060861,-2.3721,2.4999999999941735e-05,-0.00014999999999987246,0.0014500000000000624,-0.02642863051315871,0.002237489465881426,0.0011785205271644186
150000000000.0,6,0.0259287826,-0.00385401345,0.0225160684,-0.001774,0.001129,0.002313,-0.1549254567,-0.59648948625,-9.787232833,-0.015828,0.060863,-2.3721,-0.00029999999999996696,0.0005999999999999339,-0.0014600000000000168,0.02585622387333257,-0.0034839795180328093,-0.0012918949598051815
150000000000.0,6,0.03060655465,-0.01846592195,0.01173856005,-0.001794,-0.002066,0.001251,-0.15450377075000002,-0.5966954258999999,-9.787232833,-0.015785,0.060883,-2.3721,-0.00029999999999996696,0.00039999999999995595,-4.999999999999449e-05,-0.00924772446247276,-0.006254390773157148,0.000470024676790394
150000000000.0,6,0.011915079749999998,-0.0258699427,0.009022117999999999,-0.000722,-0.002073,0.000185,-0.1545135774,-0.5970680786,-9.787232833,-0.015786,0.060922,-2.3721,-2.4999999999941735e-05,-1.4285714285744433e-05,-2.0000000000020002e-05,-0.0005660982519242602,0.00011142139088526903,-2.4744991004077566e-05
150000000000.0,6,0.00734518085,-0.022927947699999996,0.020368412049999996,-0.000695,-0.001014,-0.000906,-0.1544351242,-0.5974701512499999,-9.787232833,-0.015778,0.060963,-2.3721,-2.4999999999941735e-05,-1.4285714285744433e-05,4.0000000000040004e-05,0.00014202804600838698,0.00040916080485131623,0.0002914829436665642
150000000000.0,6,0.0020692031499999998,-0.02491869765,0.0332053169,0.000381,4.3e-05,-0.000906,-0.15440570424999997,-0.5980291302999999,-9.7871347665,-0.015775,0.061019,-2.3721,-2.500000000016378e-05,-1.4285714285744433e-05,-1.0000000000065512e-05,-0.0002594024717324783,-3.9113153985192994e-05,-5.385476345592943e-05
150000000000.0,6,0.0091397978,-0.02923362365,0.03243059155,-0.000691,5.1e-05,0.00016,-0.15413111805,-0.59849004285,-9.7871347665,-0.015747,0.061067,-2.3721,-2.4999999999941735e-05,-1.4285714285522388e-05,-9.99999999995449e-06,-7.9076447834725e-05,-0.0005748398658782516,-0.00013331304979613545
150000000000.0,6,0.02109410415,-0.03443114814999999,0.0157887065,0.00144,-0.001031,-0.000902,-0.15381730525,-0.5991372817499999,-9.7871347665,-0.015715,0.061133,-2.3721,-1.666666666655381e-05,-1.4285714285744433e-05,-1.0000000000065512e-05,0.000434419066302108,-0.00011313350978348069,8.676826937087379e-05
150000000000.0,6,0.0158279331,-0.02454604495,0.011287454149999999,-0.001749,0.001126,0.000156,-0.15349368579999997,-0.59945109455,-9.7871347665,-0.015682,0.061165,-2.3721,-1.6666666666775853e-05,-1.4285714285744433e-05,5.000000000032756e-06,-0.00048540847248883245,-0.0007188378266533846,-0.00028443193074592643
150000000000.0,6,0.00448163905,-0.025889555999999998,0.018583601749999998,-0.000702,-0.002079,-0.000904,-0.1535132991,-0.5998923937999999,-9.7870367,-0.015684,0.06121,-2.3721,-1.6666666666775853e-05,-1.4285714285744433e-05,5.000000000032756e-06,0.0003597703386380019,0.0006154584362025872,9.176813490971436e-05
150000000000.0,6,-0.0028047019,-0.031969678999999994,0.025889555999999998,-0.000698,-0.001014,0.000161,-0.15356233235,-0.60039253295,-9.7870367,-0.015689,0.061262,-2.3721,-1.666666666655381e-05,9.999999999998899e-05,-4.999999999999449e-05,0.00020772546335661585,-0.0009755603189833817,-0.00021778379198037628
150000000000.0,6,-0.0052171378,-0.0373241099,0.017475450299999997,-0.002822,6.9e-05,0.000156,-0.15355252569999997,-0.6008730588,-9.7870367,-0.015688,0.061311,-2.3721,-1.666666666655381e-05,-2.4999999999941735e-05,-2.0000000000020002e-05,-1.3648096211932303e-06,-0.0001512173558748664,-2.68783589187499e-05
150000000000.0,6,-0.00783551335,-0.044639870799999995,0.0244773984,-0.001738,0.002191,0.000154,-0.15362117224999997,-0.60149087775,-9.7869386335,-0.015695,0.061374,-2.3721,-1.6666666666775853e-05,-2.500000000016378e-05,2.0000000000020002e-05,0.00034543857894190483,-0.0004388469350260493,0.000925758248053625
150000000000.0,6,-0.0089828914,-0.02970434285,0.028027405699999997,0.000388,0.001108,0.00016,-0.1536702055,-0.6020694700999999,-9.7869386335,-0.0157,0.061432,-2.3721,4.999999999988347e-05,-2.4999999999941735e-05,5.000000000032756e-06,-8.777669026944351e-05,0.0002262880802428313,8.194710598358884e-05
150000000000.0,6,-0.0396777059,-0.04135464305,0.0323227184,-0.000684,0.001115,0.001225,-0.15424879784999998,-0.6026872890499999,-9.7869386335,-0.015759,0.061495,-2.3721,5.0000000000105516e-05,-2.4999999999941735e-05,4.999999999921734e-06,-0.00022237876872496787,-0.00013385802756449294,1.3284722742507027e-05
150000000000.0,6,-0.01572005995,-0.05458381389999999,0.021937476049999998,0.000376,4e-05,0.001229,-0.15442531755,-0.60366795405,-9.786840566999999,-0.015777,0.061596,-2.3721,-9.999999999998899e-05,-4.999999999988347e-05,-9.99999999995449e-06,0.00017764749148687503,0.00033143733623730576,0.00021256935050695952
150000000000.0,6,-0.017995202749999998,-0.051259359549999994,0.0197702064,0.000368,-0.001025,0.001231,-0.15483719685,-0.6045995858,-9.786742500499999,-0.01582,0.061691,-2.3721,9.999999999998899e-05,-5.0000000000105516e-05,-4.0000000000040004e-05,-0.0003198522154887612,0.000503555322541871,-0.0007380722212391583
150000000000.0,6,-0.00844352565,-0.05908506625,0.028988457399999997,-0.001777,-0.003138,0.000163,-0.15525888279999997,-0.605462571,-9.786742500499999,-0.015863,0.061779,-2.3721,-5.0000000000105516e-05,-3.333333333332966e-05,2.0000000000020002e-05,0.0005482976088777569,0.00041867822153918155,-3.369371764265494e-05
150000000000.0,6,-0.010895188149999999,-0.06232126075,0.014121576,-0.001749,0.002186,0.003356,-0.15535694929999996,-0.6064040093999999,-9.786644434,-0.015873,0.061876,-2.3721,-4.999999999988347e-05,-3.333333333332966e-05,-4.0000000000040004e-05,-0.0002731936891634673,-0.00018953010160172035,0.0002806856009223563
150000000000.0,6,-0.02266316815,-0.04681694709999999,0.0223003221,-0.00069,0.001112,0.00336,-0.1557099887,-0.60710028155,-9.786644434,-0.015909,0.061947,-2.372,9.999999999998899e-05,-3.333333333332966e-05,4.999999999999449e-05,0.0010756039001337467,0.0010633008447225034,-0.00020086268080870412
150000000000.0,6,-0.0648611831,-0.06867596995,0.03792231555,0.000371,0.002164,0.006562,-0.1567494936,-0.6082868861999999,-9.7865463675,-0.016016,0.062067,-2.372,-9.999999999998899e-05,-9.999999999998899e-05,-3.999999999992898e-05,-4.835042498858855e-05,-0.0007172660328549352,-0.0002452133966355241
150000000000.0,6,-0.036323831599999995,-0.06273314005,0.046660040699999995,0.002494,1.6e-05,0.005502,-0.15730847264999998,-0.60959117065,-9.786448301,-0.016073,0.062201,-2.3719,4.999999999988347e-05,-9.999999999998899e-05,-2.0000000000020002e-05,6.950816360977441e-05,-0.0003941316380215998,8.632133688096788e-06
150000000000.0,6,-0.03131263345,-0.0683131239,0.0293807234,-0.001769,0.001115,0.00656,-0.1578282251,-0.61059144895,-9.786350234499999,-0.016126,0.062304,-2.3718,5.0000000000105516e-05,-9.999999999998899e-05,2.0000000000020002e-05,-0.0005458651582304769,7.621702107862838e-05,0.000250850109162995
150000000000.0,6,-0.0250069575,-0.0732360622,0.004167826249999999,-0.003911,6.7e-05,0.006559,-0.1582989443,-0.61165056715,-9.786252167999999,-0.016174,0.062412,-2.3718,5.0000000000105516e-05,-9.999999999998899e-05,7.00000000000145e-05,-0.0006234715108260486,0.00042316656207375125,0.00033074683173166253
150000000000.0,6,-0.028507931549999997,-0.08289561245,0.00257914895,-0.001791,4.6e-05,0.009765,-0.15883831005,-0.61292543165,-9.7861541015,-0.016229,0.062541,-2.3717,4.999999999988347e-05,-0.00019999999999997797,5.999999999994898e-05,-0.0001174954824836108,0.0008719751028387623,0.0005290711821653374
150000000000.0,6,-0.03378390925,-0.0750600991,0.015072821049999999,-0.001773,0.002176,0.009761,-0.15925018935,-0.61402377645,-9.7861541015,-0.016272,0.062654,-2.3716,0.0001500000000000945,-9.999999999998899e-05,0.0011550000000000171,0.0011244375875167079,0.0010623685142048256,-0.00035703044198974465
150000000000.0,6,-0.055407572499999995,-0.0782178404,0.03368584275,0.000359,0.001094,0.008699,-0.16021124105,-0.6153476741999999,-9.786056035,-0.01637,0.062789,-2.3715,0.00014999999999987246,-0.001000000000000112,0.0011550000000000171,0.02352558215912079,0.0376504431850464,0.003266505809655415
150000000000.0,6,-0.04361997919999999,-0.0768252961,0.033744682649999996,-0.001783,0.003236,0.014029,-0.16078002675,-0.61659311875,-9.7859579685,-0.016428,0.062917,-2.3713,9.999999999998899e-05,-0.00019999999999997797,9.999999999998899e-05,0.0016013933764252933,-0.0021390439988868692,-0.0005187331774537188
150000000000.0,6,-0.048248717999999996,-0.06545938875,0.030979207349999996,-0.002863,0.002178,0.015096,-0.1615351388,-0.6174855238999999,-9.785859901999999,-0.016506,0.063008,-2.3712,0.0004499999999998394,-9.999999999998899e-05,-4.999999999999449e-05,-3.045023314295764e-05,-0.0004650217735966411,2.5573498152790808e-05
150000000000.0,6,-0.0682935106,-0.10249910579999999,0.02291814105,0.00138,-0.001055,0.015109,-0.16274135674999998,-0.6192016876499999,-9.785761835499999,-0.016629,0.063183,-2.371,0.00045000000000006146,-0.0008999999999999009,-0.0007300000000000084,-0.011131197599474257,-0.02041303019562357,-0.004630631587480491
150000000000.0,6,-0.0320285189,-0.09329066145,0.027291906949999997,0.000315,-0.001047,0.015107,-0.16354550204999999,-0.6209276580499999,-9.7855657025,-0.016711,0.06336,-2.3709,-3.333333333332966e-05,-9.999999999998899e-05,-2.999999999997449e-05,0.00016768261271121743,0.0006123160678759287,5.981382509022415e-05
150000000000.0,6,-0.01677917815,-0.1064217658,0.030018155649999996,-0.00181,0.001099,0.017235,-0.16382989489999997,-0.62261440185,-9.785467635999998,-0.016741,0.063532,-2.3707,-3.333333333332966e-05,-0.00019999999999997797,-8.000000000008001e-05,0.0002816274656493381,0.00015812428476280616,9.249504221161414e-05
150000000000.0,6,-0.04150174279999999,-0.10851058225,0.01538663385,-0.002889,4.1e-05,0.018302,-0.16470268675,-0.6242619190500001,-9.7853695695,-0.01683,0.0637,-2.3705,-3.333333333332966e-05,-0.00019999999999997797,7.00000000000145e-05,0.00015357393946222042,0.00047788130247417016,0.0001527370704443587
150000000000.0,6,-0.0438357255,-0.11803283939999999,0.01420983585,-0.00074,0.001089,0.017237,-0.16550683205,-0.6261153759,-9.785271503,-0.016913,0.06389,-2.3703,-9.999999999998899e-05,-0.00010000000000021103,0.000160000000000049,0.0015266495877749725,0.0007666402489441282,0.0006634338050895555
150000000000.0,6,-0.039010853699999994,-0.1124234356,0.04054069109999999,0.003516,-1.3e-05,0.018313,-0.16614426429999998,-0.6282826455499999,-9.78507537,-0.016977,0.064111,-2.3701,-0.0005499999999998284,-0.00029999999999996696,2.999999999997449e-05,0.0005628029975885823,0.0005094463893935419,0.00038235208974214674
150000000000.0,6,-0.0323031051,-0.1081085096,0.06404723115,0.001404,0.0032,0.019371,-0.16656595024999998,-0.6303518486999999,-9.7849773035,-0.017021,0.064323,-2.37,-0.0005500000000000504,0.001100000000000101,-0.0011299999999999644,-0.0015778348013891982,0.0004949468482977615,0.0016546348056208152
150000000000.0,6,6.864654999999999e-05,-0.13094819745,0.01171894675,-0.000765,-0.001046,0.020442,-0.16646788375,-0.63430392865,-9.784683103999999,-0.017011,0.064726,-2.3698,-9.999999999998899e-05,-9.999999999998899e-05,-0.00045000000000006146,-0.00041306043924936586,-0.008098448127472624,-0.0006546390483299913
150000000000.0,6,0.00040207264999999996,-0.13121297699999998,0.0117287534,-0.002908,-0.002094,0.020441,-0.16680130985,-0.6340391491,-9.784683103999999,-0.017045,0.064699,-2.3696,9.999999999998899e-05,-0.00019999999999997797,-9.99999999995449e-06,-0.001439748329049688,-0.00016470603720031285,0.00048592153509003505
150000000000.0,6,0.004236472799999999,-0.13492969735,-0.01205237285,-0.001813,0.001094,0.020437,-0.16674246995,-0.6361573854999999,-9.7845850375,-0.01704,0.064916,-2.3693,9.999999999998899e-05,-0.00039999999999995595,0.00044999999999995044,-0.0045465960218057724,0.00746944103721825,0.0017998413930356214
150000000000.0,6,-6.864654999999999e-05,-0.10933434084999999,0.02448720505,0.001384,0.001067,0.02151,-0.16678169655,-0.6380991022,-9.784486971,-0.017044,0.065114,-2.3691,9.999999999998899e-05,-0.001100000000000101,0.0020700000000000163,-0.0004260171432283258,0.014008852052541876,0.0024223865677772197
150000000000.0,6,-0.0023045627499999996,-0.11072688515,0.0481310382,0.004567,-2.7e-05,0.023652,-0.1669287963,-0.64030559845,-9.784290838,-0.01706,0.06534,-2.3689,-0.0003500000000000725,-0.00029999999999996696,1.0000000000065512e-05,-0.0001651788088174802,-0.000301568132132779,-0.0002157767301780092
150000000000.0,6,0.00015690639999999998,-0.12319113729999999,0.042590280949999997,0.000293,-0.001058,0.023646,-0.1671445426,-0.64250228805,-9.784192771499999,-0.017082,0.065564,-2.3687,-0.0003500000000000725,0.0009999999999998899,-0.002690000000000081,-0.008733690360669559,-0.033028250672052284,-0.004845968120178602
150000000000.0,6,0.009129991149999999,-0.126309652,0.030047575599999998,-0.001835,2.5e-05,0.024708,-0.1671445426,-0.6444734246999999,-9.7839966385,-0.017082,0.065766,-2.3684,-4.999999999988347e-05,-0.00039999999999995595,-1.999999999990898e-05,-7.433102317189189e-05,-0.0006478890508840873,0.0004312152640339184
150000000000.0,6,0.0012356379,-0.1174444404,0.0080806796,-0.002886,0.0011,0.023637,-0.16733086894999996,-0.6461601685,-9.783898572,-0.017101,0.065937,-2.3682,-5.0000000000105516e-05,-0.00039999999999995595,1.4999999999987246e-05,-0.0006412846624850241,0.0007858125241093639,0.0006204495702590782
150000000000.0,6,-0.01834824215,-0.10909898124999999,0.014543261949999999,-0.000761,0.00108,0.025775,-0.1676544884,-0.64791555885,-9.783800505499999,-0.017134,0.066117,-2.3679,-9.999999999998899e-05,-0.00019999999999997797,1.4999999999987246e-05,0.0032547375983063426,0.000452278602719014,-0.0018561516672253031
150000000000.0,6,-0.021623663249999998,-0.08905418865,0.03180296595,-0.000735,0.002149,0.022571,-0.1679683012,-0.64940616965,-9.783702438999999,-0.017167,0.06627,-2.3677,0.0001500000000000945,-0.00039999999999995595,-2.999999999997449e-05,0.001968837662255765,0.0014320233446787345,0.0007794069710495982
150000000000.0,6,-0.0315381864,-0.09791940025,0.048140844849999996,-0.00075,0.002145,0.025773,-0.16852728024999997,-0.6510242668999999,-9.7836043725,-0.017224,0.066434,-2.3674,0.00014999999999987246,-0.0014000000000000679,0.0023199999999999887,0.023767690667938407,0.03883998575154335,0.0058576175858561785
150000000000.0,6,-0.0375398562,-0.1332527602,0.05216157135,0.001378,0.001061,0.025779,-0.16925297235,-0.6533974762,-9.7834082395,-0.017299,0.066677,-2.3672,-0.0004999999999999449,0.0005999999999999339,-0.0022300000000000653,-0.02471506004376875,-0.034432625348958856,-0.0023390112018316506
150000000000.0,6,-0.037706569249999995,-0.12022952899999999,0.026281822,-0.000778,9e-06,0.028979,-0.16998847109999998,-0.6553489995499999,-9.783212106499999,-0.017374,0.066876,-2.3669,0.0001500000000000945,-0.00039999999999995595,-2.0000000000020002e-05,-0.002267976375134026,-0.0027505361431061637,-0.0003919358802196432
150000000000.0,6,-0.025173670549999996,-0.10493115499999998,-0.0044914457,-0.002899,0.002157,0.030039,-0.17040035039999998,-0.6567317372,-9.78311404,-0.017416,0.067018,-2.3666,0.00014999999999987246,-0.0014000000000000679,0.0022699999999999942,0.026724469940889485,0.03711561005577879,0.0031658937377132615
150000000000.0,6,-0.0408741172,-0.12578989955,-0.00942419065,0.000269,0.001059,0.035384,-0.1711652691,-0.6586048073499999,-9.7830159735,-0.017494,0.06721,-2.3662,-0.00039999999999995595,0.000400000000000178,-0.0022799999999999487,-0.023202647653837026,-0.03747817441446455,-0.0046511809234065435
150000000000.0,6,-0.0380890286,-0.13655760125,0.01974078645,0.000271,0.001058,0.035384,-0.17199883435,-0.66086033685,-9.782819840499998,-0.01758,0.06744,-2.3659,-0.00019999999999997797,-0.000300000000000189,-0.00012999999999996348,-0.00036904344989880516,-0.0010331205720963688,0.001231018735116031
150000000000.0,6,-0.04342384619999999,-0.13861699775,0.0437964989,0.000271,0.002121,0.037517,-0.17295007939999998,-0.66329238605,-9.782623707499999,-0.017678,0.067688,-2.3655,9.999999999998899e-05,-0.0005999999999999339,-2.0000000000020002e-05,-0.0032673536619037893,-0.0008794831107103995,0.0004502231106498153
150000000000.0,6,-0.0550741464,-0.12479942789999998,0.029135557149999998,-0.002955,1.3e-05,0.03965,-0.17416610400000002,-0.66513603625,-9.782525641,-0.017802,0.067877,-2.3651,-0.00019999999999997797,-0.00039999999999995595,9.99999999995449e-06,0.00027464630302328347,-0.0004577373411820407,0.0003273572385669929
150000000000.0,6,-0.060310897499999995,-0.1245640683,0.014464808749999999,0.001318,0.001042,0.040723,-0.17536251529999997,-0.6671660127999999,-9.782329507999998,-0.017925,0.068085,-2.3647,9.999999999998899e-05,-0.0006999999999999229,3.500000000000725e-05,-0.00202441837097328,0.00028206186583923376,0.002624288843873876
150000000000.0,6,-0.07357929495,-0.13714600024999998,0.02846870495,0.005597,0.004199,0.043927,-0.17660795985,-0.6698530349,-9.782133375,-0.018052,0.068359,-2.3643,-9.999999999998899e-05,-0.000500000000000167,3.500000000000725e-05,0.0021562253839956386,-0.0012714478387869654,-0.0008919583424898542
